n_prompt,prompt_file,image_file,prompt_text,thisN,thisTrialN,thisRepN,related_prompt,n_resp,resp_text,rank,model,key_resp_4.keys,key_resp_4.rt,key_resp_4.duration,key_resp_2.keys,key_resp_2.rt,key_resp_2.duration,key_resp_6.keys,key_resp_6.rt,key_resp_6.duration,Inaccurate_Faithful.response,Inaccurate_Faithful.rt,Not_Helpful_Helpful.response,Not_Helpful_Helpful.rt,ViolentHarmless.response,ViolentHarmless.rt,ranking_better.response,ranking_better.rt,key_resp_7.keys,key_resp_7.rt,key_resp_7.duration,Trial.thisRepN,Trial.thisTrialN,Trial.thisN,Trial.thisIndex,per_answer.thisRepN,per_answer.thisTrialN,per_answer.thisN,per_answer.thisIndex,thisRow.t,notes,Intro_1.started,key_resp_5.started,textbox.started,Intro_1.stopped,key_resp_5.keys,key_resp_5.rt,key_resp_5.duration,Intro_2.started,textbox_2.started,key_resp_8.started,Intro_2.stopped,key_resp_8.keys,key_resp_8.rt,key_resp_8.duration,prompt_number.started,text.started,prompt_number.stopped,prompt.started,Prompt_.started,image.started,key_resp_4.started,prompt.stopped,Trial.key_resp_4.keys,Trial.key_resp_4.rt,Trial.key_resp_4.duration,Trial.prompt_text,Trial.resp_text,Cross.started,cross_white.started,Cross.stopped,trial_textbox.started,key_resp_2.started,trial_textbox.stopped,per_answer.key_resp_2.keys,per_answer.key_resp_2.rt,per_answer.key_resp_2.duration,rating.started,question_useful_2.started,Inaccurate_Faithful.started,Not_Helpful_Helpful.started,ViolentHarmless.started,key_resp_6.started,press_space.started,rating.stopped,per_answer.key_resp_6.keys,per_answer.key_resp_6.rt,per_answer.key_resp_6.duration,per_answer.Inaccurate_Faithful.response,per_answer.Inaccurate_Faithful.rt,per_answer.Not_Helpful_Helpful.response,per_answer.Not_Helpful_Helpful.rt,per_answer.ViolentHarmless.response,per_answer.ViolentHarmless.rt,cross_white.stopped,ranking.started,question_ranking.started,ranking_better.started,key_resp_7.started,text_2.started,ranking.stopped,Trial.ranking_better.response,Trial.ranking_better.rt,Trial.key_resp_7.keys,Trial.key_resp_7.rt,Trial.key_resp_7.duration,text.stopped,End.started,Bye_message.started,press_to_end_exp.started,End.stopped,press_to_end_exp.keys,press_to_end_exp.rt,press_to_end_exp.duration,participant,session,date,expName,psychopyVersion,frameRate,expStart,
,,,,,,,,,,,,,,,,,,,,,,,,,,,,,,,,,,,,,,,,,,0.011670400039292872,0.01501600001938641,0.01501600001938641,78.95997890003491,space,78.91790899995249,None,,,,,,,,,,,,,,,,,,,,,,,,,,,,,,,,,,,,,,,,,,,,,,,,,,,,,,,,,,,,,,,,,,,1,001,2025-05-29_10h05.21.873,TEST_eye_tracker,2024.2.4,59.95300879494722,2025-05-29 10h05.44.983220 +0200,
,,,,,,,,,,,,,,,,,,,,,,,,,,,,,,,,,,,,,,,,,,,,,,,,,78.9623204000527,78.96654000005219,78.96654000005219,90.04257879999932,space,11.062021699966863,None,,,,,,,,,,,,,,,,,,,,,,,,,,,,,,,,,,,,,,,,,,,,,,,,,,,,,,,,,,,,1,001,2025-05-29_10h05.21.873,TEST_eye_tracker,2024.2.4,59.95300879494722,2025-05-29 10h05.44.983220 +0200,
5,C:\Users\matte\OneDrive - Università degli Studi di Padova\Desktop\msc_experiment\responses_files\prompt_5.xlsx,C:\Users\matte\OneDrive - Università degli Studi di Padova\Desktop\msc_experiment\responses_files\img_prompt_5.jpg,0.999,0,0,0,5,5.1,"The image features a man and a young boy sitting at a table, enjoying a meal together. The man is holding a doughnut, while the boy is holding a bagel. They are both sitting at the table, surrounded by various food items, including a plate of doughnuts, a bagel, and a cup of coffee. There are also a few other doughnuts scattered around the table, indicating that they are part of the meal. The scene is warm and inviting, showcasing a father and son enjoying a casual meal together.",4.333333333333333,instructblip-vicuna-13b,space,23.730790099943988,None,space,23.15928190003615,None,space,2.733150799991563,None,3,13.560317499912344,4,20.872019800008275,5,22.312200299929827,,,,,,0,0,0,4,0,0,0,0,115.49314600008074,,,,,,,,,,,,,,,,90.10656580002978,90.10956070001703,90.55756059999112,91.58230390003882,91.61030400008895,91.61030400008895,91.61030400008895,115.35257069999352,space,23.730790099943988,None,0.999,0.999,115.48980740003753,115.49314600008074,116.48438650008757,116.52688050002325,116.53330840007402,139.7090715999948,space,23.15928190003615,None,139.87784460000694,139.8993846999947,139.8993846999947,139.8993846999947,139.8993846999947,162.2151439000154,162.2151439000154,164.96624910004903,space,2.733150799991563,None,3,13.560317499912344,4,20.872019800008275,5,22.312200299929827,,,,,,,,,,,,,,,,,,,,,1,001,2025-05-29_10h05.21.873,TEST_eye_tracker,2024.2.4,59.95300879494722,2025-05-29 10h05.44.983220 +0200,
5,C:\Users\matte\OneDrive - Università degli Studi di Padova\Desktop\msc_experiment\responses_files\prompt_5.xlsx,C:\Users\matte\OneDrive - Università degli Studi di Padova\Desktop\msc_experiment\responses_files\img_prompt_5.jpg,0.999,1,1,0,5,5.2,"The main element of this image is a man and a young boy sitting at a table, enjoying breakfast together. They are both eating doughnuts with sprinkles on them while they enjoy their meal. This scene suggests that they might be spending time as family members or friends who share common interests such as food.",3.666666666666667,VisualGLM-6b,space,23.730790099943988,None,space,15.080861499998719,None,space,0.7969716000370681,None,4,2.843625499983318,4,5.801039899932221,5,6.904703799984418,,,,,,0,0,0,4,0,1,1,1,164.9816902000457,,,,,,,,,,,,,,,,,,,,,,,,,,,0.999,0.999,164.9680604999885,164.9816902000457,165.9680020000087,165.98436790006235,165.98806220002007,181.08376579999458,space,15.080861499998719,None,181.1415407001041,181.15784520003945,181.15784520003945,181.15784520003945,181.15784520003945,188.07124010007828,188.07124010007828,188.8728332000319,space,0.7969716000370681,None,4,2.843625499983318,4,5.801039899932221,5,6.904703799984418,165.98806220002007,,,,,,,,,,,,,,,,,,,,1,001,2025-05-29_10h05.21.873,TEST_eye_tracker,2024.2.4,59.95300879494722,2025-05-29 10h05.44.983220 +0200,
5,C:\Users\matte\OneDrive - Università degli Studi di Padova\Desktop\msc_experiment\responses_files\prompt_5.xlsx,C:\Users\matte\OneDrive - Università degli Studi di Padova\Desktop\msc_experiment\responses_files\img_prompt_5.jpg,0.999,0,0,0,,,0.999,,,space,23.730790099943988,None,,,,,,,,,,,,,2,6.432954099960625,space,0.7416003999533132,None,0,0,0,4,,,,,,,,,,,,,,,,,,,,,,,,,,,,,,,,,,,,,,,,,,,,,,,,,,,,,,,,,,,,,189.03267109999433,189.03946910006925,189.03946910006925,195.49535440001637,195.49535440001637,196.24834380007815,2,6.432954099960625,space,0.7416003999533132,None,,,,,,,,,1,001,2025-05-29_10h05.21.873,TEST_eye_tracker,2024.2.4,59.95300879494722,2025-05-29 10h05.44.983220 +0200,
25,C:\Users\matte\OneDrive - Università degli Studi di Padova\Desktop\msc_experiment\responses_files\prompt_25.xlsx,C:\Users\matte\OneDrive - Università degli Studi di Padova\Desktop\msc_experiment\responses_files\img_prompt_25.jpg,0.999,0,0,0,25,25.2,"The image features a dining table with a plate of food, including a variety of snacks and a can of soda. The plate is placed on a table with a colorful cloth, adding a touch of elegance to the scene. There are several carrots scattered across the plate, with some of them placed closer to the edge and others in the middle. Additionally, a few oranges are also present on the plate, adding a pop of color to the arrangement. The can of soda is positioned next to the plate, ready to be enjoyed alongside the snacks. The overall scene is a casual and inviting dining experience, with a mix of healthy and indulgent food options.",4.333333333333333,LLaVA-RLHF-7b-v1.5-224,space,23.258663499960676,None,space,28.684419799945317,None,space,1.6775589999742806,None,2,4.0715983000118285,2,7.6319821999641135,5,9.904011799953878,,,,,,0,1,1,24,0,0,0,1,220.27308499999344,,,,,,,,,,,,,,,,196.31709410005715,196.31944340001792,196.81474980001803,196.86101340001915,196.86631080007646,196.86631080007646,196.86631080007646,220.13957210001536,space,23.258663499960676,None,0.999,0.999,220.27034560008906,220.27308499999344,221.25460230000317,221.2654028000543,221.2724965000525,249.96818800002802,space,28.684419799945317,None,250.0310930000851,250.04657510004472,250.04657510004472,250.04657510004472,250.04657510004472,259.9589443000732,259.9589443000732,261.64566490007564,space,1.6775589999742806,None,2,4.0715983000118285,2,7.6319821999641135,5,9.904011799953878,,,,,,,,,,,,,,,,,,,,,1,001,2025-05-29_10h05.21.873,TEST_eye_tracker,2024.2.4,59.95300879494722,2025-05-29 10h05.44.983220 +0200,
25,C:\Users\matte\OneDrive - Università degli Studi di Padova\Desktop\msc_experiment\responses_files\prompt_25.xlsx,C:\Users\matte\OneDrive - Università degli Studi di Padova\Desktop\msc_experiment\responses_files\img_prompt_25.jpg,0.999,1,1,0,25,25.1,"The image shows a meal arrangement on a patterned textile surface. At the center is a white, round plate that contains an assortment of food items. There's a can of Fanta with an orange flavor, which seems to be the drink of choice. The food items include what appears to be pasta shells, neatly arranged on one side of the plate, and orange wedges with some of the peel still attached, placed on the opposite side. Additionally, there are orange-colored crackers, contributing to the color theme, and a whole, unpeeled carrot lying beside the other items on the plate. The background textile has a floral pattern with a mix of vibrant colors, adding a decorative backdrop to the meal presentation.",3,gpt-4v,space,23.258663499960676,None,space,35.56088470004033,None,space,0.2645833999849856,None,4,3.1207520000170916,5,4.725231899996288,5,6.080362600041553,,,,,,0,1,1,24,0,1,1,0,261.66129499999806,,,,,,,,,,,,,,,,,,,,,,,,,,,0.999,0.999,261.64736810000613,261.66129499999806,262.6466226000339,262.6628369000973,262.6676883000182,298.23351930000354,space,35.56088470004033,None,298.29890410008375,298.31447660003323,298.31447660003323,298.31447660003323,298.31447660003323,304.4040733000729,304.4040733000729,304.67210210009944,space,0.2645833999849856,None,4,3.1207520000170916,5,4.725231899996288,5,6.080362600041553,,,,,,,,,,,,,,,,,,,,,1,001,2025-05-29_10h05.21.873,TEST_eye_tracker,2024.2.4,59.95300879494722,2025-05-29 10h05.44.983220 +0200,
25,C:\Users\matte\OneDrive - Università degli Studi di Padova\Desktop\msc_experiment\responses_files\prompt_25.xlsx,C:\Users\matte\OneDrive - Università degli Studi di Padova\Desktop\msc_experiment\responses_files\img_prompt_25.jpg,0.999,1,1,0,,,0.999,,,space,23.258663499960676,None,,,,,,,,,,,,,2,1.582553799962625,space,0.5560733999591321,None,0,1,1,24,,,,,,,,,,,,,,,,,,,,,,,,,,,,,,,,,,,,,,,,,,,,,,,,,,,,,,,,,,,,,304.84386990009807,304.8495261000935,304.8495261000935,306.45614060002845,306.45614060002845,307.0252360000741,2,1.582553799962625,space,0.5560733999591321,None,,,,,,,,,1,001,2025-05-29_10h05.21.873,TEST_eye_tracker,2024.2.4,59.95300879494722,2025-05-29 10h05.44.983220 +0200,
22,C:\Users\matte\OneDrive - Università degli Studi di Padova\Desktop\msc_experiment\responses_files\prompt_22.xlsx,C:\Users\matte\OneDrive - Università degli Studi di Padova\Desktop\msc_experiment\responses_files\img_prompt_22.jpg,0.999,0,0,0,22,22.2,The website mentioned in the image is www.tamilkavithaial.com.,4.333333333333333,Qwen-VL-Chat,space,18.247159000020474,None,space,8.62729340000078,None,space,0.20210560003761202,None,2,5.24476000003051,4,7.734393900027499,5,8.906635400024243,,,,,,0,2,2,21,0,0,0,1,325.9870371000143,,,,,,,,,,,,,,,,307.0879132000264,307.0905151000479,307.57428820000496,307.5926122000674,307.59811490005814,307.59811490005814,307.59811490005814,325.861679200083,space,18.247159000020474,None,0.999,0.999,325.98430940008257,325.9870371000143,326.97662650002167,326.9798329999903,326.99334929999895,335.63649840001017,space,8.62729340000078,None,335.69702690001577,335.7126955999993,335.7126955999993,335.7126955999993,335.7126955999993,344.62744230008684,344.62744230008684,344.84561350010335,space,0.20210560003761202,None,2,5.24476000003051,4,7.734393900027499,5,8.906635400024243,,,,,,,,,,,,,307.59811490005814,,,,,,,,1,001,2025-05-29_10h05.21.873,TEST_eye_tracker,2024.2.4,59.95300879494722,2025-05-29 10h05.44.983220 +0200,
22,C:\Users\matte\OneDrive - Università degli Studi di Padova\Desktop\msc_experiment\responses_files\prompt_22.xlsx,C:\Users\matte\OneDrive - Università degli Studi di Padova\Desktop\msc_experiment\responses_files\img_prompt_22.jpg,0.999,1,1,0,22,22.1,"The website mentioned in the image is "Google". It appears to be a search engine, and it has an interesting photo of a girl standing next to a flower with a blue sky behind her. There are also words written on the page that mention Google as well.",2,VisualGLM-6b,space,18.247159000020474,None,space,14.268025199999101,None,space,0.1933253000024706,None,1,1.439310900052078,1,2.3617896999930963,5,3.5597194000147283,,,,,,0,2,2,21,0,1,1,0,344.8610200000694,,,,,,,,,,,,,,,,,,,,,,,,,,,0.999,0.999,344.84735240007285,344.8610200000694,345.8459277000511,345.86025280004833,345.86493800010066,360.1447079000063,space,14.268025199999101,None,360.2066142000258,360.22166110004764,360.22166110004764,360.22166110004764,360.22166110004764,363.81138480000664,363.81138480000664,364.01713140006177,space,0.1933253000024706,None,1,1.439310900052078,1,2.3617896999930963,5,3.5597194000147283,,,,,,,,,,,,,,,,,,,,,1,001,2025-05-29_10h05.21.873,TEST_eye_tracker,2024.2.4,59.95300879494722,2025-05-29 10h05.44.983220 +0200,
22,C:\Users\matte\OneDrive - Università degli Studi di Padova\Desktop\msc_experiment\responses_files\prompt_22.xlsx,C:\Users\matte\OneDrive - Università degli Studi di Padova\Desktop\msc_experiment\responses_files\img_prompt_22.jpg,0.999,2,2,0,,,0.999,,,space,18.247159000020474,None,,,,,,,,,,,,,1,1.9334871000610292,space,0.6073135000187904,None,0,2,2,21,,,,,,,,,,,,,,,,,,,,,,,,,,,,,,,,,,,,,,,,,,,,,,,,,,,,,,,,,,,,,364.202331700013,364.2077264999971,364.2077264999971,366.1656198001001,366.1656198001001,366.7855482000159,1,1.9334871000610292,space,0.6073135000187904,None,,,,,,,,,1,001,2025-05-29_10h05.21.873,TEST_eye_tracker,2024.2.4,59.95300879494722,2025-05-29 10h05.44.983220 +0200,
3,C:\Users\matte\OneDrive - Università degli Studi di Padova\Desktop\msc_experiment\responses_files\prompt_3.xlsx,C:\Users\matte\OneDrive - Università degli Studi di Padova\Desktop\msc_experiment\responses_files\img_prompt_3.jpg,0.999,0,0,0,3,3.1,"The quote on the image suggests that peace, poetry, and power are important aspects of life. It encourages people to appreciate these qualities and strive to incorporate them into their daily lives. The image features a clock with a rose and a quote, which can be interpreted as a reminder to find balance between the passage of time and the beauty of life. The rose symbolizes love and appreciation, while the clock represents the importance of time and its value in our lives. The combination of these elements in the image serves as a reminder to cherish the moments and make the most of our time on earth.",5,llava1.5-13b,space,26.371852400014177,None,space,22.30204729991965,None,space,0.3542752000503242,None,2,9.364435700001195,3,12.906006000004709,5,14.261091299937107,,,,,,0,3,3,2,0,0,0,0,393.8575595000293,,,,,,,,,,,,,,,,366.85601430002134,366.8578033000231,367.3506464000093,367.3700914999936,367.376433400088,367.376433400088,367.376433400088,393.7632483000634,space,26.371852400014177,None,0.999,0.999,393.85498250008095,393.8575595000293,394.8444211999886,394.8525744000217,394.8625546999974,417.16866200009827,space,22.30204729991965,None,417.22984540008474,417.2459862000542,417.2459862000542,417.2459862000542,417.2459862000542,431.51428290002514,431.51428290002514,431.88249620003626,space,0.3542752000503242,None,2,9.364435700001195,3,12.906006000004709,5,14.261091299937107,,,,,,,,,,,,,367.376433400088,,,,,,,,1,001,2025-05-29_10h05.21.873,TEST_eye_tracker,2024.2.4,59.95300879494722,2025-05-29 10h05.44.983220 +0200,
3,C:\Users\matte\OneDrive - Università degli Studi di Padova\Desktop\msc_experiment\responses_files\prompt_3.xlsx,C:\Users\matte\OneDrive - Università degli Studi di Padova\Desktop\msc_experiment\responses_files\img_prompt_3.jpg,0.999,1,1,0,3,3.2,"The quote on the image, "Peace, Poetry, and Power," suggests that the person who created the image values peace, poetry, and power in their life. It could be a personal mantra or a statement expressing their beliefs and aspirations.",2.666666666666667,Qwen-VL-Chat,space,26.371852400014177,None,space,11.156767399981618,None,space,0.17467099998611957,None,5,1.4723918000236154,5,2.8273003000067547,5,3.913976200041361,,,,,,0,3,3,2,0,1,1,1,431.8981268000789,,,,,,,,,,,,,,,,,,,,,,,,,,,0.999,0.999,431.8844885000726,431.8981268000789,432.8831846000394,432.9051890000701,432.91260340006556,444.07933179999236,space,11.156767399981618,None,444.1405860000523,444.1562203000067,444.1562203000067,444.1562203000067,444.1562203000067,448.07737770001404,448.07737770001404,448.26540730008855,space,0.17467099998611957,None,5,1.4723918000236154,5,2.8273003000067547,5,3.913976200041361,,,,,,,,,,,,,,,,,,,,,1,001,2025-05-29_10h05.21.873,TEST_eye_tracker,2024.2.4,59.95300879494722,2025-05-29 10h05.44.983220 +0200,
3,C:\Users\matte\OneDrive - Università degli Studi di Padova\Desktop\msc_experiment\responses_files\prompt_3.xlsx,C:\Users\matte\OneDrive - Università degli Studi di Padova\Desktop\msc_experiment\responses_files\img_prompt_3.jpg,0.999,3,3,0,,,0.999,,,space,26.371852400014177,None,,,,,,,,,,,,,2,2.1424919000128284,space,0.1478128000162542,None,0,3,3,2,,,,,,,,,,,,,,,,,,,,,,,,,,,,,,,,,,,,,,,,,,,,,,,,,,,,,,,,,,,,,448.4617126000812,448.4678248000564,448.4678248000564,450.6325800000923,450.6325800000923,450.78551990003325,2,2.1424919000128284,space,0.1478128000162542,None,,,,,,,,,1,001,2025-05-29_10h05.21.873,TEST_eye_tracker,2024.2.4,59.95300879494722,2025-05-29 10h05.44.983220 +0200,
1,C:\Users\matte\OneDrive - Università degli Studi di Padova\Desktop\msc_experiment\responses_files\prompt_1.xlsx,C:\Users\matte\OneDrive - Università degli Studi di Padova\Desktop\msc_experiment\responses_files\img_prompt_1.jpg,0.999,0,0,0,1,1.1,The name of the school mentioned in the image is Witch School.,5,Qwen-VL-Chat,space,15.562844999949448,None,space,3.943159200018272,None,space,5.018835199996829,None,5,1.1469721000175923,5,2.044295199913904,5,3.102910100016743,,,,,,0,4,4,0,0,0,0,0,467.0801269999938,,,,,,,,,,,,,,,,450.8472657999955,450.85039760009386,451.334665600094,451.3552297001006,451.36169020005036,451.36169020005036,451.36169020005036,466.93650040007196,space,15.562844999949448,None,0.999,0.999,467.0774505001027,467.0801269999938,468.0675732000964,468.0802706000395,468.0856511000311,472.0399769000942,space,3.943159200018272,None,472.09538170008454,472.11101830005646,472.11101830005646,472.11101830005646,472.11101830005646,475.24133540003095,475.24133540003095,480.26423780003097,space,5.018835199996829,None,5,1.1469721000175923,5,2.044295199913904,5,3.102910100016743,,,,,,,,,,,,,451.36169020005036,,,,,,,,1,001,2025-05-29_10h05.21.873,TEST_eye_tracker,2024.2.4,59.95300879494722,2025-05-29 10h05.44.983220 +0200,
1,C:\Users\matte\OneDrive - Università degli Studi di Padova\Desktop\msc_experiment\responses_files\prompt_1.xlsx,C:\Users\matte\OneDrive - Università degli Studi di Padova\Desktop\msc_experiment\responses_files\img_prompt_1.jpg,0.999,1,1,0,1,1.2,"The image shows a book called "Witch School" with an old witch's hat on it. It has been written by a person named "J." and appears to be published by a company known as "The Witches' Hat Company," which may have multiple titles under that name.",2,VisualGLM-6b,space,15.562844999949448,None,space,18.143546600011177,None,space,0.21883490006439388,None,1,2.8769280000124127,2,3.80471169995144,5,7.006166599923745,,,,,,0,4,4,0,0,1,1,1,480.2796006000135,,,,,,,,,,,,,,,,,,,,,,,,,,,0.999,0.999,480.2658643000759,480.2796006000135,481.26459590008017,481.2808643000899,481.2853690000484,499.43394630006514,space,18.143546600011177,None,499.4934104999993,499.50940690003335,499.50940690003335,499.50940690003335,499.50940690003335,506.522415000014,506.522415000014,506.7573147000512,space,0.21883490006439388,None,1,2.8769280000124127,2,3.80471169995144,5,7.006166599923745,,,,,,,,,,,,,,,,,,,,,1,001,2025-05-29_10h05.21.873,TEST_eye_tracker,2024.2.4,59.95300879494722,2025-05-29 10h05.44.983220 +0200,
1,C:\Users\matte\OneDrive - Università degli Studi di Padova\Desktop\msc_experiment\responses_files\prompt_1.xlsx,C:\Users\matte\OneDrive - Università degli Studi di Padova\Desktop\msc_experiment\responses_files\img_prompt_1.jpg,0.999,4,4,0,,,0.999,,,space,15.562844999949448,None,,,,,,,,,,,,,1,1.687454600003548,space,0.21885320008732378,None,0,4,4,0,,,,,,,,,,,,,,,,,,,,,,,,,,,,,,,,,,,,,,,,,,,,,,,,,,,,,,,,,,,,,506.9408789000008,506.94671980000567,506.94671980000567,508.6579693000531,508.6579693000531,508.8931608001003,1,1.687454600003548,space,0.21885320008732378,None,,,,,,,,,1,001,2025-05-29_10h05.21.873,TEST_eye_tracker,2024.2.4,59.95300879494722,2025-05-29 10h05.44.983220 +0200,
19,C:\Users\matte\OneDrive - Università degli Studi di Padova\Desktop\msc_experiment\responses_files\prompt_19.xlsx,C:\Users\matte\OneDrive - Università degli Studi di Padova\Desktop\msc_experiment\responses_files\img_prompt_19.jpg,0.999,0,0,0,19,19.1,"The man in the image is snowboarding down a snow-covered slope, holding a large red axe or a long stick. He is wearing a plaid shirt and appears to be enjoying his time on the snowy hill. It is not common for snowboarders to carry a large axe or stick while snowboarding, so this unusual combination of snowboarding and carrying a large tool might be a unique aspect of this particular scene. It could be that the man is participating in some kind of special event or demonstration, or perhaps he is using the large red axe for a specific purpose, such as clearing snow or providing some kind of assistance during his snowboarding adventure.",3,LLaVA-RLHF-7b-v1.5-224,space,8.316909400047734,None,space,30.595881800050847,None,space,1.3945400000084192,None,5,3.0854097000556067,5,3.7533121999586,4,6.2457410000497475,,,,,,0,5,5,18,0,0,0,0,517.9748169000959,,,,,,,,,,,,,,,,508.9723279000027,508.97558160009794,509.4609577000374,509.49702480004635,509.5035855000606,509.5035855000606,509.5035855000606,517.8366461000405,space,8.316909400047734,None,0.999,0.999,517.9720673999982,517.9748169000959,518.9696192000993,518.9813746000873,518.9853047000943,549.586121100001,space,30.595881800050847,None,549.6519131000387,549.667638999992,549.667638999992,549.667638999992,549.667638999992,555.9216510000406,555.9216510000406,557.3243294000858,space,1.3945400000084192,None,5,3.0854097000556067,5,3.7533121999586,4,6.2457410000497475,,,,,,,,,,,,,509.5035855000606,,,,,,,,1,001,2025-05-29_10h05.21.873,TEST_eye_tracker,2024.2.4,59.95300879494722,2025-05-29 10h05.44.983220 +0200,
19,C:\Users\matte\OneDrive - Università degli Studi di Padova\Desktop\msc_experiment\responses_files\prompt_19.xlsx,C:\Users\matte\OneDrive - Università degli Studi di Padova\Desktop\msc_experiment\responses_files\img_prompt_19.jpg,0.999,1,1,0,19,19.2,The man in the image is riding skis down a snow-covered slope while holding an ax in his hand.,2.333333333333333,Qwen-VL-Chat,space,8.316909400047734,None,space,9.959135800017975,None,space,0.17164249997586012,None,3,2.9065019000554457,2,4.962741099996492,4,8.803677199990489,,,,,,0,5,5,18,0,1,1,1,557.3399608000182,,,,,,,,,,,,,,,,,,,,,,,,,,,0.999,0.999,557.3260137999896,557.3399608000182,558.324534400017,558.3323383000679,558.3409998000134,568.3047911000904,space,9.959135800017975,None,568.3653613000643,568.3805285000708,568.3805285000708,568.3805285000708,568.3805285000708,577.1930244000396,577.1930244000396,577.3777995000128,space,0.17164249997586012,None,3,2.9065019000554457,2,4.962741099996492,4,8.803677199990489,,,,,,,,,,,,,,,,,,,,,1,001,2025-05-29_10h05.21.873,TEST_eye_tracker,2024.2.4,59.95300879494722,2025-05-29 10h05.44.983220 +0200,
19,C:\Users\matte\OneDrive - Università degli Studi di Padova\Desktop\msc_experiment\responses_files\prompt_19.xlsx,C:\Users\matte\OneDrive - Università degli Studi di Padova\Desktop\msc_experiment\responses_files\img_prompt_19.jpg,0.999,5,5,0,,,0.999,,,space,8.316909400047734,None,,,,,,,,,,,,,1,2.3576084000524133,space,0.3540652000810951,None,0,5,5,18,,,,,,,,,,,,,,,,,,,,,,,,,,,,,,,,,,,,,,,,,,,,,,,,,,,,,,,,,,,,,577.5750941000879,577.5805346000707,577.5805346000707,579.9626704000402,579.9626704000402,580.3309487000806,1,2.3576084000524133,space,0.3540652000810951,None,,,,,,,,,1,001,2025-05-29_10h05.21.873,TEST_eye_tracker,2024.2.4,59.95300879494722,2025-05-29 10h05.44.983220 +0200,
9,C:\Users\matte\OneDrive - Università degli Studi di Padova\Desktop\msc_experiment\responses_files\prompt_9.xlsx,C:\Users\matte\OneDrive - Università degli Studi di Padova\Desktop\msc_experiment\responses_files\img_prompt_9.jpg,0.999,0,0,0,9,9.1,"The bedroom in the image has a modern and stylish appearance, featuring a large bed with white pillows and a white comforter. The room is dimly lit, creating a cozy and intimate atmosphere. The bed is positioned next to a wall, and there is a lamp on the nightstand, providing additional lighting in the room. The overall ambiance of the bedroom is inviting and comfortable, making it an ideal space for relaxation and rest.",2,llava1.5-13b,space,17.530801499960944,None,space,19.535884500015527,None,space,0.6172235999256372,None,4,2.228774500079453,5,4.390586199937388,5,5.248074800008908,,,,,,0,6,6,8,0,0,0,0,598.6163892000914,,,,,,,,,,,,,,,,580.3910571000306,580.3939840000821,580.8818739000708,580.9183481000364,580.9303211000515,580.9303211000515,580.9303211000515,598.4682989000576,space,17.530801499960944,None,0.999,0.999,598.6134852000978,598.6163892000914,599.5990809000796,599.6230178000405,599.628708000062,619.1709643000504,space,19.535884500015527,None,619.2369936000323,619.2518756000791,619.2518756000791,619.2518756000791,619.2518756000791,624.5069943000562,624.5069943000562,625.1258521000855,space,0.6172235999256372,None,4,2.228774500079453,5,4.390586199937388,5,5.248074800008908,,,,,,,,,,,,,580.9303211000515,,,,,,,,1,001,2025-05-29_10h05.21.873,TEST_eye_tracker,2024.2.4,59.95300879494722,2025-05-29 10h05.44.983220 +0200,
9,C:\Users\matte\OneDrive - Università degli Studi di Padova\Desktop\msc_experiment\responses_files\prompt_9.xlsx,C:\Users\matte\OneDrive - Università degli Studi di Padova\Desktop\msc_experiment\responses_files\img_prompt_9.jpg,0.999,1,1,0,9,9.2,"The bedroom in the image has a clean and minimalist appearance, featuring a large bed with white sheets and pillows, which gives it a fresh and inviting look. The room is well-lit, with a light on, creating a cozy atmosphere. The overall atmosphere of the bedroom is calm and relaxing, making it an ideal space for rest and rejuvenation.",4.333333333333333,Qwen-VL-Chat,space,17.530801499960944,None,space,11.294208500068635,None,space,0.15146540000569075,None,3,1.3169149999739602,4,2.9382798000006005,5,3.8663386000553146,,,,,,0,6,6,8,0,1,1,1,625.1409586000955,,,,,,,,,,,,,,,,,,,,,,,,,,,0.999,0.999,625.1274923000019,625.1409586000955,626.125592000084,626.1309928999981,626.1420591000933,637.4411640000762,space,11.294208500068635,None,637.5060949000763,637.5213262999896,637.5213262999896,637.5213262999896,637.5213262999896,641.3967037000693,641.3967037000693,641.5667150000809,space,0.15146540000569075,None,3,1.3169149999739602,4,2.9382798000006005,5,3.8663386000553146,626.1420591000933,,,,,,,,,,,,,,,,,,,,1,001,2025-05-29_10h05.21.873,TEST_eye_tracker,2024.2.4,59.95300879494722,2025-05-29 10h05.44.983220 +0200,
9,C:\Users\matte\OneDrive - Università degli Studi di Padova\Desktop\msc_experiment\responses_files\prompt_9.xlsx,C:\Users\matte\OneDrive - Università degli Studi di Padova\Desktop\msc_experiment\responses_files\img_prompt_9.jpg,0.999,6,6,0,,,0.999,,,space,17.530801499960944,None,,,,,,,,,,,,,1,2.341923699947074,space,1.0096002999925986,None,0,6,6,8,,,,,,,,,,,,,,,,,,,,,,,,,,,,,,,,,,,,,,,,,,,,,,,,,,,,,,,,,,,,,641.8557560000336,641.8626951000188,641.8626951000188,644.2267203000374,644.2267203000374,645.2457241000375,1,2.341923699947074,space,1.0096002999925986,None,,,,,,,,,1,001,2025-05-29_10h05.21.873,TEST_eye_tracker,2024.2.4,59.95300879494722,2025-05-29 10h05.44.983220 +0200,
30,C:\Users\matte\OneDrive - Università degli Studi di Padova\Desktop\msc_experiment\responses_files\prompt_30.xlsx,C:\Users\matte\OneDrive - Università degli Studi di Padova\Desktop\msc_experiment\responses_files\img_prompt_30.jpg,0.999,0,0,0,30,30.1,"The main topic of the report mentioned in the image is "Access to Justice for Internally Displaced and Ethnic Minority Women." The report appears to be an analytical study conducted in 2015, focusing on the challenges and issues faced by women who are internally displaced or belong to ethnic minorities in accessing justice.",4.666666666666667,gpt-4v,space,20.010396600002423,None,space,10.628971399972215,None,space,0.08506770001258701,None,5,1.9737108999397606,5,2.876164000015706,5,3.534758900059387,,,,,,0,7,7,29,0,0,0,0,665.9682154000038,,,,,,,,,,,,,,,,645.3133106000023,645.3164521000581,645.8126541000092,645.850281800027,645.8583850000286,645.8583850000286,645.8583850000286,665.8856120000128,space,20.010396600002423,None,0.999,0.999,665.965749300085,665.9682154000038,666.9495250000618,666.9621582000982,666.9673707000911,677.6108578999992,space,10.628971399972215,None,677.6782120000571,677.693267100025,677.693267100025,677.693267100025,677.693267100025,681.2552636000328,681.2552636000328,681.3633899000706,space,0.08506770001258701,None,5,1.9737108999397606,5,2.876164000015706,5,3.534758900059387,,,,,,,,,,,,,,,,,,,,,1,001,2025-05-29_10h05.21.873,TEST_eye_tracker,2024.2.4,59.95300879494722,2025-05-29 10h05.44.983220 +0200,
30,C:\Users\matte\OneDrive - Università degli Studi di Padova\Desktop\msc_experiment\responses_files\prompt_30.xlsx,C:\Users\matte\OneDrive - Università degli Studi di Padova\Desktop\msc_experiment\responses_files\img_prompt_30.jpg,0.999,1,1,0,30,30.2,"The purple color image shows a woman standing on top of a mountain, holding a book. She has long hair and wears a black dress with white sleeves. The background appears to be a dark forest or a deep blue sky.",2.333333333333333,VisualGLM-6b,space,20.010396600002423,None,space,10.03035239991732,None,space,4.462422500015236,None,1,1.2045590999769047,1,1.9689081000396982,5,5.7028382999124005,,,,,,0,7,7,29,0,1,1,1,681.3695261999965,,,,,,,,,,,,,,,,,,,,,,,,,,,0.999,0.999,681.3664404000156,681.3695261999965,682.3651751000434,682.3737801000243,682.3814582000487,692.4260438000783,space,10.03035239991732,None,692.4892855000217,692.5040674000047,692.5040674000047,692.5040674000047,692.5040674000047,698.2138862001011,698.2138862001011,702.6863495000871,space,4.462422500015236,None,1,1.2045590999769047,1,1.9689081000396982,5,5.7028382999124005,,,,,,,,,,,,,,,,,,,,,1,001,2025-05-29_10h05.21.873,TEST_eye_tracker,2024.2.4,59.95300879494722,2025-05-29 10h05.44.983220 +0200,
30,C:\Users\matte\OneDrive - Università degli Studi di Padova\Desktop\msc_experiment\responses_files\prompt_30.xlsx,C:\Users\matte\OneDrive - Università degli Studi di Padova\Desktop\msc_experiment\responses_files\img_prompt_30.jpg,0.999,7,7,0,,,0.999,,,space,20.010396600002423,None,,,,,,,,,,,,,1,2.6516344000119716,space,0.42491649999283254,None,0,7,7,29,,,,,,,,,,,,,,,,,,,,,,,,,,,,,,,,,,,,,,,,,,,,,,,,,,,,,,,,,,,,,702.8886862000218,702.8937360000564,702.8937360000564,705.571225700085,705.571225700085,706.0065063000657,1,2.6516344000119716,space,0.42491649999283254,None,,,,,,,,,1,001,2025-05-29_10h05.21.873,TEST_eye_tracker,2024.2.4,59.95300879494722,2025-05-29 10h05.44.983220 +0200,
15,C:\Users\matte\OneDrive - Università degli Studi di Padova\Desktop\msc_experiment\responses_files\prompt_15.xlsx,C:\Users\matte\OneDrive - Università degli Studi di Padova\Desktop\msc_experiment\responses_files\img_prompt_15.jpg,0.999,0,0,0,15,15.1,The title of Naomi Klein's book is "The Shock Doctrine: The Rise of Disaster Capitalism.",5,gpt-4v,space,16.909398599993438,None,space,4.482119700056501,None,space,0.8124341000802815,None,5,1.0415378001052886,5,1.9734856999712065,5,3.4414155000122264,,,,,,0,8,8,14,0,0,0,0,723.633079900057,,,,,,,,,,,,,,,,706.0750910000643,706.0779645000584,706.5737387000117,706.609946200042,706.6152890000958,706.6152890000958,706.6152890000958,723.5292264000745,space,16.909398599993438,None,0.999,0.999,723.6305098000448,723.633079900057,724.6236976000946,724.6320483000018,724.6417833000887,729.1301521999994,space,4.482119700056501,None,729.1973853000673,729.2139983000234,729.2139983000234,729.2139983000234,729.2139983000234,732.6799680000404,732.6799680000404,733.5005317000905,space,0.8124341000802815,None,5,1.0415378001052886,5,1.9734856999712065,5,3.4414155000122264,,,,,,,,,,,,,,,,,,,,,1,001,2025-05-29_10h05.21.873,TEST_eye_tracker,2024.2.4,59.95300879494722,2025-05-29 10h05.44.983220 +0200,
15,C:\Users\matte\OneDrive - Università degli Studi di Padova\Desktop\msc_experiment\responses_files\prompt_15.xlsx,C:\Users\matte\OneDrive - Università degli Studi di Padova\Desktop\msc_experiment\responses_files\img_prompt_15.jpg,0.999,1,1,0,15,15.2,"The title of NaomiKlein's book "The Shock Doctrine" is "The End of Employment and the Rise of Disaster Capitalism." This book explores how economic policies have become increasingly harmful to human rights, social justice, and environmental sustainability. It argues that the shock doctrine has led to a situation where large-scale industries are being built in developing countries with little regard for local conditions or social implications.",2.333333333333333,VisualGLM-6b,space,16.909398599993438,None,space,31.254667899920605,None,space,3.8779455000767484,None,2,4.329212399898097,2,5.945208700024523,3,7.39988230005838,,,,,,0,8,8,14,0,1,1,1,733.5158879000228,,,,,,,,,,,,,,,,,,,,,,,,,,,0.999,0.999,733.5021368000889,733.5158879000228,734.5014402000234,734.5154802000616,734.5180040000705,765.7830774000613,space,31.254667899920605,None,765.8474292000756,765.8622903000796,765.8622903000796,765.8622903000796,765.8622903000796,773.2712073000148,773.2712073000148,777.1604730000254,space,3.8779455000767484,None,2,4.329212399898097,2,5.945208700024523,3,7.39988230005838,734.5180040000705,,,,,,,,,,,,,,,,,,,,1,001,2025-05-29_10h05.21.873,TEST_eye_tracker,2024.2.4,59.95300879494722,2025-05-29 10h05.44.983220 +0200,
15,C:\Users\matte\OneDrive - Università degli Studi di Padova\Desktop\msc_experiment\responses_files\prompt_15.xlsx,C:\Users\matte\OneDrive - Università degli Studi di Padova\Desktop\msc_experiment\responses_files\img_prompt_15.jpg,0.999,8,8,0,,,0.999,,,space,16.909398599993438,None,,,,,,,,,,,,,1,1.4788551999954507,space,0.39811990002635866,None,0,8,8,14,,,,,,,,,,,,,,,,,,,,,,,,,,,,,,,,,,,,,,,,,,,,,,,,,,,,,,,,,,,,,777.369606000022,777.3760661000852,777.3760661000852,778.8781918000896,778.8781918000896,779.2801079000346,1,1.4788551999954507,space,0.39811990002635866,None,,,,,,,,,1,001,2025-05-29_10h05.21.873,TEST_eye_tracker,2024.2.4,59.95300879494722,2025-05-29 10h05.44.983220 +0200,
23,C:\Users\matte\OneDrive - Università degli Studi di Padova\Desktop\msc_experiment\responses_files\prompt_23.xlsx,C:\Users\matte\OneDrive - Università degli Studi di Padova\Desktop\msc_experiment\responses_files\img_prompt_23.jpg,0.999,0,0,0,23,23.1,"This page shows a diagram showing how vehicles use noise and vibration reduction systems to reduce their environmental impact. The diagram includes various components, such as vehicle body, engine, transmission, differentials, and wheels, that are used for noise and vibration reduction.",3,VisualGLM-6b,space,19.288985799998045,None,space,16.488785999943502,None,space,2.852005399996415,None,3,1.8243039000080898,3,4.530887100030668,4,8.16958169999998,,,,,,0,9,9,22,0,0,0,0,799.29755820008,,,,,,,,,,,,,,,,779.3692501999903,779.3729428000515,779.8631320000859,779.8928507000674,779.8992368000327,779.8992368000327,779.8992368000327,799.2023286999902,space,19.288985799998045,None,0.999,0.999,799.2949930999894,799.29755820008,800.2826437000185,800.2861021000426,800.2992801000364,816.8010217000265,space,16.488785999943502,None,816.8641747999936,816.8798978000414,816.8798978000414,816.8798978000414,816.8798978000414,822.5212064000079,822.5212064000079,825.3758095999947,space,2.852005399996415,None,3,1.8243039000080898,3,4.530887100030668,4,8.16958169999998,,,,,,,,,,,,,,,,,,,,,1,001,2025-05-29_10h05.21.873,TEST_eye_tracker,2024.2.4,59.95300879494722,2025-05-29 10h05.44.983220 +0200,
23,C:\Users\matte\OneDrive - Università degli Studi di Padova\Desktop\msc_experiment\responses_files\prompt_23.xlsx,C:\Users\matte\OneDrive - Università degli Studi di Padova\Desktop\msc_experiment\responses_files\img_prompt_23.jpg,0.999,1,1,0,23,23.2,Title: Vehicle Noise and Vibration Refinement. Topic: Woodhead Publishing in Mechanical Engineering.,5,fuyu-8b,space,19.288985799998045,None,space,8.480875700013712,None,space,0.14560679998248816,None,1,1.7713084999704733,2,3.653785900096409,5,5.732695200014859,,,,,,0,9,9,22,0,1,1,1,825.3912202999927,,,,,,,,,,,,,,,,,,,,,,,,,,,0.999,0.999,825.377777100075,825.3912202999927,826.3769387000939,826.3974914000137,826.4030700000003,834.887684400077,space,8.480875700013712,None,834.9496271000244,834.9661655999953,834.9661655999953,834.9661655999953,834.9661655999953,840.7063260000432,840.7063260000432,840.8573954000603,space,0.14560679998248816,None,1,1.7713084999704733,2,3.653785900096409,5,5.732695200014859,,,,,,,,,,,,,,,,,,,,,1,001,2025-05-29_10h05.21.873,TEST_eye_tracker,2024.2.4,59.95300879494722,2025-05-29 10h05.44.983220 +0200,
23,C:\Users\matte\OneDrive - Università degli Studi di Padova\Desktop\msc_experiment\responses_files\prompt_23.xlsx,C:\Users\matte\OneDrive - Università degli Studi di Padova\Desktop\msc_experiment\responses_files\img_prompt_23.jpg,0.999,9,9,0,,,0.999,,,space,19.288985799998045,None,,,,,,,,,,,,,1,1.9212331000017002,space,0.4351720999693498,None,0,9,9,22,,,,,,,,,,,,,,,,,,,,,,,,,,,,,,,,,,,,,,,,,,,,,,,,,,,,,,,,,,,,,841.0572422000114,841.0631473000394,841.0631473000394,843.0085567000788,843.0085567000788,843.4607113000238,1,1.9212331000017002,space,0.4351720999693498,None,,,,,,,,,1,001,2025-05-29_10h05.21.873,TEST_eye_tracker,2024.2.4,59.95300879494722,2025-05-29 10h05.44.983220 +0200,
17,C:\Users\matte\OneDrive - Università degli Studi di Padova\Desktop\msc_experiment\responses_files\prompt_17.xlsx,C:\Users\matte\OneDrive - Università degli Studi di Padova\Desktop\msc_experiment\responses_files\img_prompt_17.jpg,0.999,0,0,0,17,17.2,"The full name of this Institute is "Juilliard University". It was established by a group of students from different universities and institutions, including Juilliard School of Music, where they were studying music theory and composition.",2.333333333333333,VisualGLM-6b,space,27.55647100007627,None,space,9.210608100052923,None,space,0.21750240004621446,None,1,1.2252722999546677,1,2.056695600040257,3,3.4159006000263616,,,,,,0,10,10,16,0,0,0,1,871.7051062000683,,,,,,,,,,,,,,,,843.5225445000688,843.525216500042,844.0107385000447,844.0331643000245,844.040170500055,844.040170500055,844.040170500055,871.6070741000585,space,27.55647100007627,None,0.999,0.999,871.7025015000254,871.7051062000683,872.6885278000263,872.6945041000145,872.7064650000539,881.9334687000373,space,9.210608100052923,None,881.9945983000798,882.0095055000857,882.0095055000857,882.0095055000857,882.0095055000857,885.4586462000152,885.4586462000152,885.7107198000886,space,0.21750240004621446,None,1,1.2252722999546677,1,2.056695600040257,3,3.4159006000263616,,,,,,,,,,,,,844.040170500055,,,,,,,,1,001,2025-05-29_10h05.21.873,TEST_eye_tracker,2024.2.4,59.95300879494722,2025-05-29 10h05.44.983220 +0200,
17,C:\Users\matte\OneDrive - Università degli Studi di Padova\Desktop\msc_experiment\responses_files\prompt_17.xlsx,C:\Users\matte\OneDrive - Università degli Studi di Padova\Desktop\msc_experiment\responses_files\img_prompt_17.jpg,0.999,1,1,0,17,17.1,Julius Kuhn-Institutt,3.333333333333333,fuyu-8b,space,27.55647100007627,None,space,3.6682722999248654,None,space,0.26051579997874796,None,5,2.286814499995671,5,2.8904024999355897,5,3.5314792999997735,,,,,,0,10,10,16,0,1,1,0,885.717823300045,,,,,,,,,,,,,,,,,,,,,,,,,,,0.999,0.999,885.7144183000783,885.717823300045,886.7042953000637,886.7134556000819,886.720029600081,890.3928644000553,space,3.6682722999248654,None,890.457013700041,890.4709827000042,890.4709827000042,890.4709827000042,890.4709827000042,894.0316511000274,894.0316511000274,894.3022889000131,space,0.26051579997874796,None,5,2.286814499995671,5,2.8904024999355897,5,3.5314792999997735,886.720029600081,,,,,,,,,,,,,,,,,,,,1,001,2025-05-29_10h05.21.873,TEST_eye_tracker,2024.2.4,59.95300879494722,2025-05-29 10h05.44.983220 +0200,
17,C:\Users\matte\OneDrive - Università degli Studi di Padova\Desktop\msc_experiment\responses_files\prompt_17.xlsx,C:\Users\matte\OneDrive - Università degli Studi di Padova\Desktop\msc_experiment\responses_files\img_prompt_17.jpg,0.999,10,10,0,,,0.999,,,space,27.55647100007627,None,,,,,,,,,,,,,2,1.6735393999842927,space,0.22704939998220652,None,0,10,10,16,,,,,,,,,,,,,,,,,,,,,,,,,,,,,,,,,,,,,,,,,,,,,,,,,,,,,,,,,,,,,894.6263275000965,894.6341735000024,894.6341735000024,896.3289076000219,896.3289076000219,896.5642644000473,2,1.6735393999842927,space,0.22704939998220652,None,,,,,,,,,1,001,2025-05-29_10h05.21.873,TEST_eye_tracker,2024.2.4,59.95300879494722,2025-05-29 10h05.44.983220 +0200,
13,C:\Users\matte\OneDrive - Università degli Studi di Padova\Desktop\msc_experiment\responses_files\prompt_13.xlsx,C:\Users\matte\OneDrive - Università degli Studi di Padova\Desktop\msc_experiment\responses_files\img_prompt_13.jpg,0.999,0,0,0,13,13.1,The bowl in the image is small.,2.333333333333333,llava1.5-7b,space,13.959786200080998,None,space,2.8479224999900907,None,space,0.2445066999644041,None,5,1.2538093000184745,5,1.9465951999882236,5,2.578761799959466,,,,,,0,11,11,12,0,0,0,0,911.230722200009,,,,,,,,,,,,,,,,896.6255586000625,896.6290778000839,897.1147522000829,897.1435437999899,897.1492498000152,897.1492498000152,897.1492498000152,911.1145339000504,space,13.959786200080998,None,0.999,0.999,911.22759210004,911.230722200009,912.227814400103,912.2299341000617,912.2444325000979,915.0993284001015,space,2.8479224999900907,None,915.1798062000889,915.2098080000142,915.2098080000142,915.2098080000142,915.2098080000142,917.7830926000606,917.7830926000606,918.0346919000149,space,0.2445066999644041,None,5,1.2538093000184745,5,1.9465951999882236,5,2.578761799959466,,,,,,,,,,,,,897.1492498000152,,,,,,,,1,001,2025-05-29_10h05.21.873,TEST_eye_tracker,2024.2.4,59.95300879494722,2025-05-29 10h05.44.983220 +0200,
13,C:\Users\matte\OneDrive - Università degli Studi di Padova\Desktop\msc_experiment\responses_files\prompt_13.xlsx,C:\Users\matte\OneDrive - Università degli Studi di Padova\Desktop\msc_experiment\responses_files\img_prompt_13.jpg,0.999,1,1,0,13,13.2,"The bowl in the image contains miniature items, as indicated by the comparison with the penny. To provide an accurate estimate of the bowl's size, I would need to know the dimensions of the coin, which appears to be a U.S. penny. U.S. pennies have a diameter of 0.75 inches (19.05 mm). By comparing the bowl with the penny, we can visually estimate that the bowl is slightly more than twice the diameter of the penny, making the bowl approximately 1.5 to 2 inches in diameter. However, this is a rough estimate, and the actual size could vary.",3.333333333333333,gpt-4v,space,13.959786200080998,None,space,24.14180059998762,None,space,0.198571200016886,None,5,0.899209399940446,5,1.5037631000159308,5,2.2342608999460936,,,,,,0,11,11,12,0,1,1,1,918.0500876000151,,,,,,,,,,,,,,,,,,,,,,,,,,,0.999,0.999,918.0362638999941,918.0500876000151,919.0348487000447,919.048416600097,919.0542133999988,943.2113567000488,space,24.14180059998762,None,943.2783457000041,943.2924177000532,943.2924177000532,943.2924177000532,943.2924177000532,945.5412357000168,945.5412357000168,945.7422143000877,space,0.198571200016886,None,5,0.899209399940446,5,1.5037631000159308,5,2.2342608999460936,919.0542133999988,,,,,,,,,,,,,,,,,,,,1,001,2025-05-29_10h05.21.873,TEST_eye_tracker,2024.2.4,59.95300879494722,2025-05-29 10h05.44.983220 +0200,
13,C:\Users\matte\OneDrive - Università degli Studi di Padova\Desktop\msc_experiment\responses_files\prompt_13.xlsx,C:\Users\matte\OneDrive - Università degli Studi di Padova\Desktop\msc_experiment\responses_files\img_prompt_13.jpg,0.999,11,11,0,,,0.999,,,space,13.959786200080998,None,,,,,,,,,,,,,2,0.8522873999318108,space,0.19917110004462302,None,0,11,11,12,,,,,,,,,,,,,,,,,,,,,,,,,,,,,,,,,,,,,,,,,,,,,,,,,,,,,,,,,,,,,945.9651934000431,945.9709445000626,945.9709445000626,946.8456572000869,946.8456572000869,947.0513523000991,2,0.8522873999318108,space,0.19917110004462302,None,,,,,,,,,1,001,2025-05-29_10h05.21.873,TEST_eye_tracker,2024.2.4,59.95300879494722,2025-05-29 10h05.44.983220 +0200,
18,C:\Users\matte\OneDrive - Università degli Studi di Padova\Desktop\msc_experiment\responses_files\prompt_18.xlsx,C:\Users\matte\OneDrive - Università degli Studi di Padova\Desktop\msc_experiment\responses_files\img_prompt_18.jpg,0.999,0,0,0,18,18.1,The clock on the building shows approximately 3:00.,4,gpt-4v,space,14.189402999938466,None,space,3.416326200007461,None,space,0.26446360000409186,None,5,2.569599900045432,5,3.3318681999808177,5,4.512117099948227,,,,,,0,12,12,17,0,0,0,0,961.9849020000547,,,,,,,,,,,,,,,,947.1335988000501,947.1372768000001,947.630356800044,947.6651408000616,947.6715833999915,947.6715833999915,947.6715833999915,961.8658230000874,space,14.189402999938466,None,0.999,0.999,961.9824066000292,961.9849020000547,962.9784637000412,962.9853220999939,962.9963571000844,966.4183066000696,space,3.416326200007461,None,966.4828107000794,966.4982187000569,966.4982187000569,966.4982187000569,966.4982187000569,971.0197108000284,971.0197108000284,971.2877352000214,space,0.26446360000409186,None,5,2.569599900045432,5,3.3318681999808177,5,4.512117099948227,,,,,,,,,,,,,,,,,,,,,1,001,2025-05-29_10h05.21.873,TEST_eye_tracker,2024.2.4,59.95300879494722,2025-05-29 10h05.44.983220 +0200,
18,C:\Users\matte\OneDrive - Università degli Studi di Padova\Desktop\msc_experiment\responses_files\prompt_18.xlsx,C:\Users\matte\OneDrive - Università degli Studi di Padova\Desktop\msc_experiment\responses_files\img_prompt_18.jpg,0.999,1,1,0,18,18.2,The clock on the building shows 12:30.,4.666666666666667,Qwen-VL-Chat,space,14.189402999938466,None,space,2.595336399972439,None,space,7.013062700047158,None,1,1.3581726000411436,1,2.0076615000143647,4,7.728300000075251,,,,,,0,12,12,17,0,1,1,1,971.3032781000948,,,,,,,,,,,,,,,,,,,,,,,,,,,0.999,0.999,971.2893236000091,971.3032781000948,972.2881155000068,972.2945916000754,972.3049863000633,974.908998100087,space,2.595336399972439,None,974.9679150000447,974.9835491999984,974.9835491999984,974.9835491999984,974.9835491999984,979.695058500045,979.695058500045,986.7196448000614,space,7.013062700047158,None,1,1.3581726000411436,1,2.0076615000143647,4,7.728300000075251,,,,,,,,,,,,,,,,,,,,,1,001,2025-05-29_10h05.21.873,TEST_eye_tracker,2024.2.4,59.95300879494722,2025-05-29 10h05.44.983220 +0200,
18,C:\Users\matte\OneDrive - Università degli Studi di Padova\Desktop\msc_experiment\responses_files\prompt_18.xlsx,C:\Users\matte\OneDrive - Università degli Studi di Padova\Desktop\msc_experiment\responses_files\img_prompt_18.jpg,0.999,12,12,0,,,0.999,,,space,14.189402999938466,None,,,,,,,,,,,,,1,1.9007921000011265,space,0.25312180002219975,None,0,12,12,17,,,,,,,,,,,,,,,,,,,,,,,,,,,,,,,,,,,,,,,,,,,,,,,,,,,,,,,,,,,,,986.9402167000808,986.9461417000275,986.9461417000275,988.8708437000168,988.8708437000168,989.1394924999913,1,1.9007921000011265,space,0.25312180002219975,None,,,,,,,,,1,001,2025-05-29_10h05.21.873,TEST_eye_tracker,2024.2.4,59.95300879494722,2025-05-29 10h05.44.983220 +0200,
2,C:\Users\matte\OneDrive - Università degli Studi di Padova\Desktop\msc_experiment\responses_files\prompt_2.xlsx,C:\Users\matte\OneDrive - Università degli Studi di Padova\Desktop\msc_experiment\responses_files\img_prompt_2.jpg,0.999,0,0,0,2,2.2,"Yes, there is a purple umbrella near the green leaves in the image. It appears to be left behind by someone, possibly a pedestrian who forgot it while walking by.",2.333333333333333,llava1.5-13b,space,24.03221149998717,None,space,4.162287899991497,None,space,0.6254954000469297,None,2,2.5316295999800786,1,4.399515299941413,5,6.67748329997994,,,,,,0,13,13,1,0,0,0,1,1013.9177015000023,,,,,,,,,,,,,,,,989.2050991000142,989.2078876000596,989.7053933000425,989.7375116000185,989.7483603000874,989.7483603000874,989.7483603000874,1013.7838361000177,space,24.03221149998717,None,0.999,0.999,1013.9144197000423,1013.9177015000023,1014.8970506000333,1014.9144018000225,1014.9299954000162,1019.1040434000315,space,4.162287899991497,None,1019.1749894000823,1019.1925747999921,1019.1925747999921,1019.1925747999921,1019.1925747999921,1025.8742865000386,1025.8742865000386,1026.509177000029,space,0.6254954000469297,None,2,2.5316295999800786,1,4.399515299941413,5,6.67748329997994,,,,,,,,,,,,,,,,,,,,,1,001,2025-05-29_10h05.21.873,TEST_eye_tracker,2024.2.4,59.95300879494722,2025-05-29 10h05.44.983220 +0200,
2,C:\Users\matte\OneDrive - Università degli Studi di Padova\Desktop\msc_experiment\responses_files\prompt_2.xlsx,C:\Users\matte\OneDrive - Università degli Studi di Padova\Desktop\msc_experiment\responses_files\img_prompt_2.jpg,0.999,1,1,0,2,2.1,"The image shows a street scene with traffic signs in the foreground, but there is no visible purple umbrella near any green leaves. It might not be included in the frame of this picture or it might be obscured from view.",1.666666666666667,gpt-4v,space,24.03221149998717,None,space,12.554623699979857,None,space,0.1582417000317946,None,5,1.1894498000619933,5,1.9102028999477625,5,2.581475699902512,,,,,,0,13,13,1,0,1,1,0,1026.5243624000577,,,,,,,,,,,,,,,,,,,,,,,,,,,0.999,0.999,1026.5109927000012,1026.5243624000577,1027.5103450000752,1027.5252477000467,1027.5295290000504,1040.0909587000497,space,12.554623699979857,None,1040.1520534000592,1040.1670114001026,1040.1670114001026,1040.1670114001026,1040.1670114001026,1042.7579217000166,1042.7579217000166,1042.9259838000871,space,0.1582417000317946,None,5,1.1894498000619933,5,1.9102028999477625,5,2.581475699902512,,,,,,,,,,,,,,,,,,,,,1,001,2025-05-29_10h05.21.873,TEST_eye_tracker,2024.2.4,59.95300879494722,2025-05-29 10h05.44.983220 +0200,
2,C:\Users\matte\OneDrive - Università degli Studi di Padova\Desktop\msc_experiment\responses_files\prompt_2.xlsx,C:\Users\matte\OneDrive - Università degli Studi di Padova\Desktop\msc_experiment\responses_files\img_prompt_2.jpg,0.999,13,13,0,,,0.999,,,space,24.03221149998717,None,,,,,,,,,,,,,2,1.7846122999908403,space,0.1628089000005275,None,0,13,13,1,,,,,,,,,,,,,,,,,,,,,,,,,,,,,,,,,,,,,,,,,,,,,,,,,,,,,,,,,,,,,1043.1633615000173,1043.170002900064,1043.170002900064,1044.976785200066,1044.976785200066,1045.145424000104,2,1.7846122999908403,space,0.1628089000005275,None,,,,,,,,,1,001,2025-05-29_10h05.21.873,TEST_eye_tracker,2024.2.4,59.95300879494722,2025-05-29 10h05.44.983220 +0200,
29,C:\Users\matte\OneDrive - Università degli Studi di Padova\Desktop\msc_experiment\responses_files\prompt_29.xlsx,C:\Users\matte\OneDrive - Università degli Studi di Padova\Desktop\msc_experiment\responses_files\img_prompt_29.jpg,0.999,0,0,0,29,29.1,Reaching for Home,5,fuyu-8b,space,22.311292700003833,None,space,3.378612499916926,None,space,0.23554499994497746,None,5,0.8189651999855414,5,1.5956520000472665,5,2.232581300078891,,,,,,0,14,14,28,0,0,0,0,1068.1576730000088,,,,,,,,,,,,,,,,1045.2084032000275,1045.2115574000636,1045.6946243999992,1045.7108753999928,1045.7167886000825,1045.7167886000825,1045.7167886000825,1068.0360284000635,space,22.311292700003833,None,0.999,0.999,1068.155254200101,1068.1576730000088,1069.1520105000818,1069.1610838000197,1069.1694291000022,1072.5552516001044,space,3.378612499916926,None,1072.617544000037,1072.6339948000386,1072.6339948000386,1072.6339948000386,1072.6339948000386,1074.8732364000753,1074.8732364000753,1075.1247210000874,space,0.23554499994497746,None,5,0.8189651999855414,5,1.5956520000472665,5,2.232581300078891,,,,,,,,,,,,,1045.7167886000825,,,,,,,,1,001,2025-05-29_10h05.21.873,TEST_eye_tracker,2024.2.4,59.95300879494722,2025-05-29 10h05.44.983220 +0200,
29,C:\Users\matte\OneDrive - Università degli Studi di Padova\Desktop\msc_experiment\responses_files\prompt_29.xlsx,C:\Users\matte\OneDrive - Università degli Studi di Padova\Desktop\msc_experiment\responses_files\img_prompt_29.jpg,0.999,1,1,0,29,29.2,Reaching for Home: Global Learning on Family Reintegration in Low and Lower-Middle Income Countries,2.666666666666667,llava1.5-13b,space,22.311292700003833,None,space,4.525596800027415,None,space,0.5332669999916106,None,5,1.4301850999472663,5,2.018124300055206,5,2.5924019999802113,,,,,,0,14,14,28,0,1,1,1,1075.1402444000123,,,,,,,,,,,,,,,,,,,,,,,,,,,0.999,0.999,1075.1263247000752,1075.1402444000123,1076.1251884000376,1076.1335009000031,1076.1425782000879,1080.681436700048,space,4.525596800027415,None,1080.7518778000958,1080.7685234000674,1080.7685234000674,1080.7685234000674,1080.7685234000674,1083.3666733000427,1083.3666733000427,1083.9281147000147,space,0.5332669999916106,None,5,1.4301850999472663,5,2.018124300055206,5,2.5924019999802113,1076.1425782000879,,,,,,,,,,,,,,,,,,,,1,001,2025-05-29_10h05.21.873,TEST_eye_tracker,2024.2.4,59.95300879494722,2025-05-29 10h05.44.983220 +0200,
29,C:\Users\matte\OneDrive - Università degli Studi di Padova\Desktop\msc_experiment\responses_files\prompt_29.xlsx,C:\Users\matte\OneDrive - Università degli Studi di Padova\Desktop\msc_experiment\responses_files\img_prompt_29.jpg,0.999,14,14,0,,,0.999,,,space,22.311292700003833,None,,,,,,,,,,,,,2,1.2678569999989122,space,0.22316560009494424,None,0,14,14,28,,,,,,,,,,,,,,,,,,,,,,,,,,,,,,,,,,,,,,,,,,,,,,,,,,,,,,,,,,,,,1084.4225298000965,1084.4322819000809,1084.4322819000809,1085.7177599000279,1085.7177599000279,1085.9531774000498,2,1.2678569999989122,space,0.22316560009494424,None,,,,,,,,,1,001,2025-05-29_10h05.21.873,TEST_eye_tracker,2024.2.4,59.95300879494722,2025-05-29 10h05.44.983220 +0200,
12,C:\Users\matte\OneDrive - Università degli Studi di Padova\Desktop\msc_experiment\responses_files\prompt_12.xlsx,C:\Users\matte\OneDrive - Università degli Studi di Padova\Desktop\msc_experiment\responses_files\img_prompt_12.jpg,0.999,0,0,0,12,12.2,"The man is performing a skateboarding trick known as an "ollie." This is a fundamental skateboarding trick where the rider and board leap into the air without the use of the rider's hands. The trick is executed by snapping the tail of the skateboard down while jumping, which causes the board to pop into the air. It appears that he is doing this on a city street with buildings and clear blue skies in the background.",3.333333333333333,gpt-4v,space,13.921721699996851,None,space,19.483818900072947,None,space,0.991854100022465,None,3,1.2092485000612214,3,4.7173407999798656,4,7.274491899996065,,,,,,0,15,15,11,0,0,0,1,1100.6172279000748,,,,,,,,,,,,,,,,1086.0248845000751,1086.0274788000388,1086.5200014000293,1086.5487516000867,1086.5544977000682,1086.5544977000682,1086.5544977000682,1100.4853604000527,space,13.921721699996851,None,0.999,0.999,1100.6144436000613,1100.6172279000748,1101.600223800051,1101.6085066000232,1101.616973199998,1121.1051471000537,space,19.483818900072947,None,1121.1630307000596,1121.1789791000774,1121.1789791000774,1121.1789791000774,1121.1789791000774,1128.4601479000412,1128.4601479000412,1129.462278900086,space,0.991854100022465,None,3,1.2092485000612214,3,4.7173407999798656,4,7.274491899996065,,,,,,,,,,,,,1086.5544977000682,,,,,,,,1,001,2025-05-29_10h05.21.873,TEST_eye_tracker,2024.2.4,59.95300879494722,2025-05-29 10h05.44.983220 +0200,
12,C:\Users\matte\OneDrive - Università degli Studi di Padova\Desktop\msc_experiment\responses_files\prompt_12.xlsx,C:\Users\matte\OneDrive - Università degli Studi di Padova\Desktop\msc_experiment\responses_files\img_prompt_12.jpg,0.999,1,1,0,12,12.1,"The man is performing a trick on his skateboard, jumping in the air while riding it.",4.666666666666667,Qwen-VL-Chat,space,13.921721699996851,None,space,3.2610381999984384,None,space,0.30834759993012995,None,5,1.0256190000800416,5,1.6273382999934256,5,2.982679900014773,,,,,,0,15,15,11,0,1,1,0,1129.477979700081,,,,,,,,,,,,,,,,,,,,,,,,,,,0.999,0.999,1129.4642321000574,1129.477979700081,1130.4631210000953,1130.4721596000018,1130.479004300083,1133.7507194000063,space,3.2610381999984384,None,1133.8110723000718,1133.8272614000598,1133.8272614000598,1133.8272614000598,1133.8272614000598,1136.8314592000097,1136.8314592000097,1137.1522111000959,space,0.30834759993012995,None,5,1.0256190000800416,5,1.6273382999934256,5,2.982679900014773,,,,,,,,,,,,,,,,,,,,,1,001,2025-05-29_10h05.21.873,TEST_eye_tracker,2024.2.4,59.95300879494722,2025-05-29 10h05.44.983220 +0200,
12,C:\Users\matte\OneDrive - Università degli Studi di Padova\Desktop\msc_experiment\responses_files\prompt_12.xlsx,C:\Users\matte\OneDrive - Università degli Studi di Padova\Desktop\msc_experiment\responses_files\img_prompt_12.jpg,0.999,15,15,0,,,0.999,,,space,13.921721699996851,None,,,,,,,,,,,,,2,1.0876637999899685,space,0.19790769997052848,None,0,15,15,11,,,,,,,,,,,,,,,,,,,,,,,,,,,,,,,,,,,,,,,,,,,,,,,,,,,,,,,,,,,,,1137.5529528000625,1137.559011500096,1137.559011500096,1138.670452899998,1138.670452899998,1138.8722271000734,2,1.0876637999899685,space,0.19790769997052848,None,,,,,,,,,1,001,2025-05-29_10h05.21.873,TEST_eye_tracker,2024.2.4,59.95300879494722,2025-05-29 10h05.44.983220 +0200,
4,C:\Users\matte\OneDrive - Università degli Studi di Padova\Desktop\msc_experiment\responses_files\prompt_4.xlsx,C:\Users\matte\OneDrive - Università degli Studi di Padova\Desktop\msc_experiment\responses_files\img_prompt_4.jpg,0.999,0,0,0,4,4.1,"The image is a compilation of four photos, each depicting a man performing a trick on a skateboard. The man is wearing a black shirt and jeans throughout the sequence. In the first photo, the man is at the top of a ramp, preparing to drop in and ride his skateboard down the ramp. The following three photos show him in mid-air, executing a trick that involves jumping over a ledge. The sequence captures the motion and excitement of the skateboarder's performance.",4,Qwen-VL-Chat,space,19.929816799936816,None,space,17.517209899961017,None,space,0.36977750004734844,None,3,1.3200817999895662,3,4.237685900065117,4,5.714457899914123,,,,,,0,16,16,3,0,0,0,0,1159.5630710000405,,,,,,,,,,,,,,,,1138.9503627000377,1138.9575235000812,1139.4550389000215,1139.475907200016,1139.482264499995,1139.482264499995,1139.482264499995,1159.4273407000583,space,19.929816799936816,None,0.999,0.999,1159.5603265000973,1159.5630710000405,1160.5424905000255,1160.5550204000901,1160.5590202000458,1178.0797625000123,space,17.517209899961017,None,1178.1426312000258,1178.1579476000043,1178.1579476000043,1178.1579476000043,1178.1579476000043,1183.8822321000043,1183.8822321000043,1184.2670043000253,space,0.36977750004734844,None,3,1.3200817999895662,3,4.237685900065117,4,5.714457899914123,,,,,,,,,,,,,,,,,,,,,1,001,2025-05-29_10h05.21.873,TEST_eye_tracker,2024.2.4,59.95300879494722,2025-05-29 10h05.44.983220 +0200,
4,C:\Users\matte\OneDrive - Università degli Studi di Padova\Desktop\msc_experiment\responses_files\prompt_4.xlsx,C:\Users\matte\OneDrive - Università degli Studi di Padova\Desktop\msc_experiment\responses_files\img_prompt_4.jpg,0.999,1,1,0,4,4.2,"The image is a collage of six different shots featuring a skateboarder performing various tricks on a skateboard. The skateboarder is captured in different positions and stages of the tricks, showcasing their skills and the progression of the stunts. In each of the six shots, the skateboarder is wearing a black shirt, and the skateboard is visible in various positions throughout the collage. The skateboarder is captured in different stages of the tricks, from the initial approach to the peak of the stunt and the landing. The collage captures the essence of the skateboarder's performance and the excitement of the sport.",4.666666666666667,llava1.5-13b,space,19.929816799936816,None,space,28.344472000026144,None,space,1.0923582999967039,None,1,1.9641828999156132,1,4.8466814999701455,3,6.018317400012165,,,,,,0,16,16,3,0,1,1,1,1184.2825239000376,,,,,,,,,,,,,,,,,,,,,,,,,,,0.999,0.999,1184.2687790000346,1184.2825239000376,1185.2680019000545,1185.2864664000226,1185.2915915000485,1213.6468117000768,space,28.344472000026144,None,1213.708945600083,1213.725253200042,1213.725253200042,1213.725253200042,1213.725253200042,1219.7513264000881,1219.7513264000881,1220.8536405999912,space,1.0923582999967039,None,1,1.9641828999156132,1,4.8466814999701455,3,6.018317400012165,,,,,,,,,,,,,,,,,,,,,1,001,2025-05-29_10h05.21.873,TEST_eye_tracker,2024.2.4,59.95300879494722,2025-05-29 10h05.44.983220 +0200,
4,C:\Users\matte\OneDrive - Università degli Studi di Padova\Desktop\msc_experiment\responses_files\prompt_4.xlsx,C:\Users\matte\OneDrive - Università degli Studi di Padova\Desktop\msc_experiment\responses_files\img_prompt_4.jpg,0.999,16,16,0,,,0.999,,,space,19.929816799936816,None,,,,,,,,,,,,,1,1.3404101999476552,space,0.24695539998356253,None,0,16,16,3,,,,,,,,,,,,,,,,,,,,,,,,,,,,,,,,,,,,,,,,,,,,,,,,,,,,,,,,,,,,,1221.0840724000009,1221.0892916000448,1221.0892916000448,1222.4541175999912,1222.4541175999912,1222.7116943000583,1,1.3404101999476552,space,0.24695539998356253,None,,,,,,,,,1,001,2025-05-29_10h05.21.873,TEST_eye_tracker,2024.2.4,59.95300879494722,2025-05-29 10h05.44.983220 +0200,
16,C:\Users\matte\OneDrive - Università degli Studi di Padova\Desktop\msc_experiment\responses_files\prompt_16.xlsx,C:\Users\matte\OneDrive - Università degli Studi di Padova\Desktop\msc_experiment\responses_files\img_prompt_16.jpg,0.999,0,0,0,16,16.1,The quote written in the image is: "forgive yourself for not knowing what you didn't know before you lived through it.",5,LLaVA-RLHF-7b-v1.5-224,space,24.3170003000414,None,space,5.025625400012359,None,space,0.1722341999411583,None,3,4.053196799941361,4,6.159000699990429,5,7.697956999996677,,,,,,0,17,17,15,0,0,0,0,1247.7481816000072,,,,,,,,,,,,,,,,1222.7775585000636,1222.7802263000049,1223.2718995000469,1223.2889428000199,1223.2950014000526,1223.2950014000526,1223.2950014000526,1247.6157970000058,space,24.3170003000414,None,0.999,0.999,1247.7455483000958,1247.7481816000072,1248.7304068000522,1248.7331218000036,1248.747005000012,1253.7869594000513,space,5.025625400012359,None,1253.8541777000064,1253.8693948000437,1253.8693948000437,1253.8693948000437,1253.8693948000437,1261.5765764000826,1261.5765764000826,1261.7610574000282,space,0.1722341999411583,None,3,4.053196799941361,4,6.159000699990429,5,7.697956999996677,,,,,,,,,,,,,1223.2950014000526,,,,,,,,1,001,2025-05-29_10h05.21.873,TEST_eye_tracker,2024.2.4,59.95300879494722,2025-05-29 10h05.44.983220 +0200,
16,C:\Users\matte\OneDrive - Università degli Studi di Padova\Desktop\msc_experiment\responses_files\prompt_16.xlsx,C:\Users\matte\OneDrive - Università degli Studi di Padova\Desktop\msc_experiment\responses_files\img_prompt_16.jpg,0.999,1,1,0,16,16.2,"The quote in the image reads: "Forgive yourself for not knowing what you didn't know before you lived through it. Honor your path. Trust your journey. Learn, grow, evolve, become." It is attributed to someone named Cinda Crawford.",3,gpt-4v,space,24.3170003000414,None,space,7.003103299997747,None,space,0.1680865999078378,None,5,0.7554737000027671,5,1.2461126999696717,5,1.8258918999927118,,,,,,0,17,17,15,0,1,1,1,1261.776770700002,,,,,,,,,,,,,,,,,,,,,,,,,,,0.999,0.999,1261.7630000000354,1261.776770700002,1262.7619519000873,1262.7698814000469,1262.7780856000027,1269.7870199000463,space,7.003103299997747,None,1269.8503412000136,1269.8660603000317,1269.8660603000317,1269.8660603000317,1269.8660603000317,1271.699736300041,1271.699736300041,1271.8882307000458,space,0.1680865999078378,None,5,0.7554737000027671,5,1.2461126999696717,5,1.8258918999927118,,,,,,,,,,,,,,,,,,,,,1,001,2025-05-29_10h05.21.873,TEST_eye_tracker,2024.2.4,59.95300879494722,2025-05-29 10h05.44.983220 +0200,
16,C:\Users\matte\OneDrive - Università degli Studi di Padova\Desktop\msc_experiment\responses_files\prompt_16.xlsx,C:\Users\matte\OneDrive - Università degli Studi di Padova\Desktop\msc_experiment\responses_files\img_prompt_16.jpg,0.999,17,17,0,,,0.999,,,space,24.3170003000414,None,,,,,,,,,,,,,2,3.251821499899961,space,0.4418411999940872,None,0,17,17,15,,,,,,,,,,,,,,,,,,,,,,,,,,,,,,,,,,,,,,,,,,,,,,,,,,,,,,,,,,,,,1272.1925263000885,1272.1979770000326,1272.1979770000326,1275.4737976000179,1275.4737976000179,1275.9253204000415,2,3.251821499899961,space,0.4418411999940872,None,,,,,,,,,1,001,2025-05-29_10h05.21.873,TEST_eye_tracker,2024.2.4,59.95300879494722,2025-05-29 10h05.44.983220 +0200,
20,C:\Users\matte\OneDrive - Università degli Studi di Padova\Desktop\msc_experiment\responses_files\prompt_20.xlsx,C:\Users\matte\OneDrive - Università degli Studi di Padova\Desktop\msc_experiment\responses_files\img_prompt_20.jpg,0.999,0,0,0,20,20.1,"In the image, I can see a variety of furniture, including a couch, a chair, and a refrigerator. The couch is located in the living room, while the chair is positioned near the dining table. The refrigerator is situated in the kitchen area. Additionally, there is a TV in the living room, which adds to the cozy and functional setup of the space. The presence of these items indicates that the room is designed to accommodate both relaxation and dining activities, making it a versatile and comfortable living space.",2.333333333333333,LLaVA-RLHF-13b-v1.5-336,space,29.17790300003253,None,space,23.409590000053868,None,space,0.24842230009380728,None,4,2.0168672000290826,5,3.268467799993232,5,5.288280799984932,,,,,,0,18,18,19,0,0,0,0,1305.8674219000386,,,,,,,,,,,,,,,,1276.0013897999888,1276.006089100032,1276.4937128000893,1276.53231410007,1276.538186000078,1276.538186000078,1276.538186000078,1305.7238588000182,space,29.17790300003253,None,0.999,0.999,1305.8649166000541,1305.8674219000386,1306.8553288000403,1306.8681419000495,1306.8747331000632,1330.2978839999996,space,23.409590000053868,None,1330.3715578000993,1330.3878267999971,1330.3878267999971,1330.3878267999971,1330.3878267999971,1335.6836297000991,1335.6836297000991,1335.935235400102,space,0.24842230009380728,None,4,2.0168672000290826,5,3.268467799993232,5,5.288280799984932,,,,,,,,,,,,,1276.538186000078,,,,,,,,1,001,2025-05-29_10h05.21.873,TEST_eye_tracker,2024.2.4,59.95300879494722,2025-05-29 10h05.44.983220 +0200,
20,C:\Users\matte\OneDrive - Università degli Studi di Padova\Desktop\msc_experiment\responses_files\prompt_20.xlsx,C:\Users\matte\OneDrive - Università degli Studi di Padova\Desktop\msc_experiment\responses_files\img_prompt_20.jpg,0.999,1,1,0,20,20.2,"In this image, I can see a couch, a chair, and a refrigerator. The couch is brown, and the chair is black. The refrigerator is white, and it is placed in the kitchen area.",3.666666666666667,LLaVA-RLHF-7b-v1.5-224,space,29.17790300003253,None,space,4.92361349996645,None,space,0.19663549994584173,None,1,0.9619144999887794,1,2.13547690003179,3,3.856885700020939,,,,,,0,18,18,19,0,1,1,1,1335.9506524000317,,,,,,,,,,,,,,,,,,,,,,,,,,,0.999,0.999,1335.9371114000678,1335.9506524000317,1336.9361702000024,1336.944390000077,1336.9519352000207,1341.8918338000076,space,4.92361349996645,None,1341.9676314000972,1341.9828910999931,1341.9828910999931,1341.9828910999931,1341.9828910999931,1345.8474114000564,1345.8474114000564,1346.0506164000835,space,0.19663549994584173,None,1,0.9619144999887794,1,2.13547690003179,3,3.856885700020939,,,,,,,,,,,,,,,,,,,,,1,001,2025-05-29_10h05.21.873,TEST_eye_tracker,2024.2.4,59.95300879494722,2025-05-29 10h05.44.983220 +0200,
20,C:\Users\matte\OneDrive - Università degli Studi di Padova\Desktop\msc_experiment\responses_files\prompt_20.xlsx,C:\Users\matte\OneDrive - Università degli Studi di Padova\Desktop\msc_experiment\responses_files\img_prompt_20.jpg,0.999,18,18,0,,,0.999,,,space,29.17790300003253,None,,,,,,,,,,,,,1,1.280341099947691,space,0.0634425999596715,None,0,18,18,19,,,,,,,,,,,,,,,,,,,,,,,,,,,,,,,,,,,,,,,,,,,,,,,,,,,,,,,,,,,,,1346.30316390004,1346.308519500075,1346.308519500075,1347.6123411000008,1347.6123411000008,1347.6813466000604,1,1.280341099947691,space,0.0634425999596715,None,,,,,,,,,1,001,2025-05-29_10h05.21.873,TEST_eye_tracker,2024.2.4,59.95300879494722,2025-05-29 10h05.44.983220 +0200,
27,C:\Users\matte\OneDrive - Università degli Studi di Padova\Desktop\msc_experiment\responses_files\prompt_27.xlsx,C:\Users\matte\OneDrive - Università degli Studi di Padova\Desktop\msc_experiment\responses_files\img_prompt_27.jpg,0.999,0,0,0,27,27.2,"The image appears to be centered around a meal at a restaurant, featuring what looks like a sandwich possibly with pulled pork, served with French fries and a side of coleslaw, accompanied by a small bowl of sauce. On the other plate, there seems to be a rice dish with vegetables and grilled chicken breast, served with slices of toasted bread. The drinks visible are likely soft drinks. The theme suggests a casual dining experience, possibly at an American-style restaurant or diner, with a focus on hearty, comfort food dishes.",3.666666666666667,gpt-4v,space,9.10458139993716,None,space,16.67331280000508,None,space,0.1873149999883026,None,5,1.3361352999927476,5,2.033415500074625,5,2.662398500018753,,,,,,0,19,19,26,0,0,0,1,1357.540383500047,,,,,,,,,,,,,,,,1347.7499942000723,1347.7532839000924,1348.2474020000082,1348.2785470000235,1348.2837717999937,1348.2837717999937,1348.2837717999937,1357.3933136000996,space,9.10458139993716,None,0.999,0.999,1357.5374355000677,1357.540383500047,1358.5237968000583,1358.5403133000946,1358.5463132000295,1375.2251725000096,space,16.67331280000508,None,1375.2900335000595,1375.3054342000978,1375.3054342000978,1375.3054342000978,1375.3054342000978,1377.9770377000095,1377.9770377000095,1378.1675015999936,space,0.1873149999883026,None,5,1.3361352999927476,5,2.033415500074625,5,2.662398500018753,,,,,,,,,,,,,,,,,,,,,1,001,2025-05-29_10h05.21.873,TEST_eye_tracker,2024.2.4,59.95300879494722,2025-05-29 10h05.44.983220 +0200,
27,C:\Users\matte\OneDrive - Università degli Studi di Padova\Desktop\msc_experiment\responses_files\prompt_27.xlsx,C:\Users\matte\OneDrive - Università degli Studi di Padova\Desktop\msc_experiment\responses_files\img_prompt_27.jpg,0.999,1,1,0,27,27.1,"The possible theme of this image could be a casual meal, as it features two plates with different dishes on them. One plate contains a sandwich and fries while another has a salad and a side dish like rice or beans. These dishes are served in cups and bowls on white dining tables, which suggests that they might be part of an evening gathering or social event where people enjoy their meals together.",4.333333333333333,VisualGLM-6b,space,9.10458139993716,None,space,9.998008899972774,None,space,0.02947649999987334,None,1,0.6782080999109894,1,1.281561200041324,3,2.7199241999769583,,,,,,0,19,19,26,0,1,1,0,1378.1743469000794,,,,,,,,,,,,,,,,,,,,,,,,,,,0.999,0.999,1378.1705851000734,1378.1743469000794,1379.162405900075,1379.178199600079,1379.1824319000589,1389.1879116999917,space,9.998008899972774,None,1389.2452107000863,1389.2614968999987,1389.2614968999987,1389.2614968999987,1389.2614968999987,1391.9900069000432,1391.9900069000432,1392.0247869000304,space,0.02947649999987334,None,1,0.6782080999109894,1,1.281561200041324,3,2.7199241999769583,1379.1824319000589,,,,,,,,,,,,,,,,,,,,1,001,2025-05-29_10h05.21.873,TEST_eye_tracker,2024.2.4,59.95300879494722,2025-05-29 10h05.44.983220 +0200,
27,C:\Users\matte\OneDrive - Università degli Studi di Padova\Desktop\msc_experiment\responses_files\prompt_27.xlsx,C:\Users\matte\OneDrive - Università degli Studi di Padova\Desktop\msc_experiment\responses_files\img_prompt_27.jpg,0.999,19,19,0,,,0.999,,,space,9.10458139993716,None,,,,,,,,,,,,,1,1.7536346999695525,space,0.2148385999025777,None,0,19,19,26,,,,,,,,,,,,,,,,,,,,,,,,,,,,,,,,,,,,,,,,,,,,,,,,,,,,,,,,,,,,,1392.3281012000516,1392.3423575999914,1392.3423575999914,1394.109073700034,1394.109073700034,1394.3280585000757,1,1.7536346999695525,space,0.2148385999025777,None,,,,,,,,,1,001,2025-05-29_10h05.21.873,TEST_eye_tracker,2024.2.4,59.95300879494722,2025-05-29 10h05.44.983220 +0200,
28,C:\Users\matte\OneDrive - Università degli Studi di Padova\Desktop\msc_experiment\responses_files\prompt_28.xlsx,C:\Users\matte\OneDrive - Università degli Studi di Padova\Desktop\msc_experiment\responses_files\img_prompt_28.jpg,0.999,0,0,0,28,28.1,"My goal is not to be better than anyone else, but rather to use my own abilities and passions in order to achieve success. I am a person who values self-improvement and growth as much as others do. The phrase "my goal is not to be better than anyone else" reflects my determination for personal development and progress. It emphasizes that I will strive to improve myself regardless of external factors or competition.",2.333333333333333,VisualGLM-6b,space,11.773492199950852,None,space,10.973070399952121,None,space,1.1960115999681875,None,1,0.8327801999403164,1,1.557892300072126,2,2.8425267999991775,,,,,,0,20,20,27,0,0,0,0,1406.8291229000315,,,,,,,,,,,,,,,,1394.3926924000261,1394.3960403000237,1394.8934086000081,1394.9200645000674,1394.9265919000609,1394.9265919000609,1394.9265919000609,1406.70780990005,space,11.773492199950852,None,0.999,0.999,1406.826593200094,1406.8291229000315,1407.806007300038,1407.8104346999899,1407.8227697000839,1418.8031910000136,space,10.973070399952121,None,1418.8698046000209,1418.8855101000518,1418.8855101000518,1418.8855101000518,1418.8855101000518,1421.7362310000462,1421.7362310000462,1422.9391225000145,space,1.1960115999681875,None,1,0.8327801999403164,1,1.557892300072126,2,2.8425267999991775,,,,,,,,,,,,,,,,,,,,,1,001,2025-05-29_10h05.21.873,TEST_eye_tracker,2024.2.4,59.95300879494722,2025-05-29 10h05.44.983220 +0200,
28,C:\Users\matte\OneDrive - Università degli Studi di Padova\Desktop\msc_experiment\responses_files\prompt_28.xlsx,C:\Users\matte\OneDrive - Università degli Studi di Padova\Desktop\msc_experiment\responses_files\img_prompt_28.jpg,0.999,1,1,0,28,28.2,"The quote on the image is: "My goal is not to be better than anyone else, but to be better than I used to be." - Wayne Dyer",4.333333333333333,Qwen-VL-Chat,space,11.773492199950852,None,space,3.160438399994746,None,space,0.14531809999607503,None,5,0.9254946999717504,5,1.36353259999305,5,1.9134811999974772,,,,,,0,20,20,27,0,1,1,1,1422.9451639000326,,,,,,,,,,,,,,,,,,,,,,,,,,,0.999,0.999,1422.9425764000043,1422.9451639000326,1423.9404487001011,1423.9472275000298,1423.9553010000382,1427.1267659000587,space,3.160438399994746,None,1427.1853497000411,1427.2002492001047,1427.2002492001047,1427.2002492001047,1427.2002492001047,1429.1384962000884,1429.1384962000884,1429.2904676999897,space,0.14531809999607503,None,5,0.9254946999717504,5,1.36353259999305,5,1.9134811999974772,1423.9553010000382,,,,,,,,,,,,,,,,,,,,1,001,2025-05-29_10h05.21.873,TEST_eye_tracker,2024.2.4,59.95300879494722,2025-05-29 10h05.44.983220 +0200,
28,C:\Users\matte\OneDrive - Università degli Studi di Padova\Desktop\msc_experiment\responses_files\prompt_28.xlsx,C:\Users\matte\OneDrive - Università degli Studi di Padova\Desktop\msc_experiment\responses_files\img_prompt_28.jpg,0.999,20,20,0,,,0.999,,,space,11.773492199950852,None,,,,,,,,,,,,,2,1.5500760999275371,space,0.19311350001953542,None,0,20,20,27,,,,,,,,,,,,,,,,,,,,,,,,,,,,,,,,,,,,,,,,,,,,,,,,,,,,,,,,,,,,,1429.599503000034,1429.6050305000972,1429.6050305000972,1431.1791844000109,1431.1791844000109,1431.3817523000762,2,1.5500760999275371,space,0.19311350001953542,None,,,,,,,,,1,001,2025-05-29_10h05.21.873,TEST_eye_tracker,2024.2.4,59.95300879494722,2025-05-29 10h05.44.983220 +0200,
10,C:\Users\matte\OneDrive - Università degli Studi di Padova\Desktop\msc_experiment\responses_files\prompt_10.xlsx,C:\Users\matte\OneDrive - Università degli Studi di Padova\Desktop\msc_experiment\responses_files\img_prompt_10.jpg,0.999,0,0,0,10,10.2,"It looks like the people in the image are enjoying a game on the Wii, which could be part of a team-building activity or a break to foster a positive work environment. Companies sometimes use gaming as a way to encourage collaboration, relieve stress, and improve employee relations. It's also possible that this is a special event or celebration, or that the company encourages short gaming breaks to boost creativity and productivity.",4.333333333333333,gpt-4v,space,17.507498299935833,None,space,10.55602550006006,None,space,0.19687360001262277,None,5,1.8664392000064254,5,2.887899599969387,5,3.359830899978988,,,,,,0,21,21,9,0,0,0,1,1449.6321355000837,,,,,,,,,,,,,,,,1431.450546200038,1431.453748900094,1431.9470109000104,1431.9630517000332,1431.9685520000057,1431.9685520000057,1431.9685520000057,1449.4831244000234,space,17.507498299935833,None,0.999,0.999,1449.6292579000583,1449.6321355000837,1450.6155653999886,1450.6265172000276,1450.6319684000919,1461.1950339000905,space,10.55602550006006,None,1461.2627057000063,1461.2780392999994,1461.2780392999994,1461.2780392999994,1461.2780392999994,1464.6630828999914,1464.6630828999914,1464.8650815000292,space,0.19687360001262277,None,5,1.8664392000064254,5,2.887899599969387,5,3.359830899978988,,,,,,,,,,,,,1431.9685520000057,,,,,,,,1,001,2025-05-29_10h05.21.873,TEST_eye_tracker,2024.2.4,59.95300879494722,2025-05-29 10h05.44.983220 +0200,
10,C:\Users\matte\OneDrive - Università degli Studi di Padova\Desktop\msc_experiment\responses_files\prompt_10.xlsx,C:\Users\matte\OneDrive - Università degli Studi di Padova\Desktop\msc_experiment\responses_files\img_prompt_10.jpg,0.999,1,1,0,10,10.1,"A possible reason the people in the image are playing Wii at work could be that they enjoy spending time together, engaging in fun activities, and fostering a sense of camaraderie. Wii games often involve physical movements, which can help relieve stress, promote teamwork, and enhance communication among players. By playing together, they share a common interest in a fun and interactive way, which can contribute to a positive work environment. Additionally, playing Wii at work might encourage employees to engage in more physical activity, which can lead to improved health and well-being.",5,fuyu-8b,space,17.507498299935833,None,space,14.224668800015934,None,space,0.27731040003709495,None,5,0.69841150008142,5,1.5032840999774635,5,2.0239207999547943,,,,,,0,21,21,9,0,1,1,0,1464.8718545000302,,,,,,,,,,,,,,,,,,,,,,,,,,,0.999,0.999,1464.8684133000206,1464.8718545000302,1465.8650730000809,1465.8809314999962,1465.8841135000112,1480.1133692000294,space,14.224668800015934,None,1480.1816910000052,1480.1998471000697,1480.1998471000697,1480.1998471000697,1480.1998471000697,1482.230205800035,1482.230205800035,1482.5147200000938,space,0.27731040003709495,None,5,0.69841150008142,5,1.5032840999774635,5,2.0239207999547943,1465.8841135000112,,,,,,,,,,,,,,,,,,,,1,001,2025-05-29_10h05.21.873,TEST_eye_tracker,2024.2.4,59.95300879494722,2025-05-29 10h05.44.983220 +0200,
10,C:\Users\matte\OneDrive - Università degli Studi di Padova\Desktop\msc_experiment\responses_files\prompt_10.xlsx,C:\Users\matte\OneDrive - Università degli Studi di Padova\Desktop\msc_experiment\responses_files\img_prompt_10.jpg,0.999,21,21,0,,,0.999,,,space,17.507498299935833,None,,,,,,,,,,,,,2,4.4562896999996156,space,0.23265150003135204,None,0,21,21,9,,,,,,,,,,,,,,,,,,,,,,,,,,,,,,,,,,,,,,,,,,,,,,,,,,,,,,,,,,,,,1482.7659626000095,1482.7709667000454,1482.7709667000454,1487.2521665000822,1487.2521665000822,1487.4876717000734,2,4.4562896999996156,space,0.23265150003135204,None,,,,,,,,,1,001,2025-05-29_10h05.21.873,TEST_eye_tracker,2024.2.4,59.95300879494722,2025-05-29 10h05.44.983220 +0200,
6,C:\Users\matte\OneDrive - Università degli Studi di Padova\Desktop\msc_experiment\responses_files\prompt_6.xlsx,C:\Users\matte\OneDrive - Università degli Studi di Padova\Desktop\msc_experiment\responses_files\img_prompt_6.jpg,0.999,0,0,0,6,6.2,"No, there is no chicken in this image. The image shows a street scene with cows. There is a white cow with a bell around its neck looking directly at the camera, and another cow in front of it seen from behind. There are also people in the background, but no chickens are visible in the photograph.",4,gpt-4v,space,12.08269619999919,None,space,13.562291100039147,None,space,0.1635845999699086,None,5,0.6646466000238433,5,1.1882738000713289,5,1.7975349000189453,,,,,,0,22,22,5,0,0,0,1,1500.4484969000332,,,,,,,,,,,,,,,,1487.567042300012,1487.5699070000555,1488.0554687000113,1488.210325699998,1488.2174641001038,1488.2174641001038,1488.2174641001038,1500.3173164000036,space,12.08269619999919,None,0.999,0.999,1500.446039600065,1500.4484969000332,1501.433011300047,1501.4397027000086,1501.4493752000853,1515.0144987000385,space,13.562291100039147,None,1515.0837763000745,1515.0986344000557,1515.0986344000557,1515.0986344000557,1515.0986344000557,1516.9041758000385,1516.9041758000385,1517.0964979000855,space,0.1635845999699086,None,5,0.6646466000238433,5,1.1882738000713289,5,1.7975349000189453,,,,,,,,,,,,,1488.2174641001038,,,,,,,,1,001,2025-05-29_10h05.21.873,TEST_eye_tracker,2024.2.4,59.95300879494722,2025-05-29 10h05.44.983220 +0200,
6,C:\Users\matte\OneDrive - Università degli Studi di Padova\Desktop\msc_experiment\responses_files\prompt_6.xlsx,C:\Users\matte\OneDrive - Università degli Studi di Padova\Desktop\msc_experiment\responses_files\img_prompt_6.jpg,0.999,1,1,0,6,6.1,"No, the artist did not include a chicken in this piece. The image features two cows standing next to each other on a dirt road, with a man standing behind them. There are no chickens in the scene. The focus of the image is on the cows and the man, and it does not include any other animals.",5,LLaVA-RLHF-7b-v1.5-224,space,12.08269619999919,None,space,10.191530200070702,None,space,0.24733980000019073,None,3,2.020568500040099,2,3.694814399932511,2,6.163319700048305,,,,,,0,22,22,5,0,1,1,0,1517.102341299993,,,,,,,,,,,,,,,,,,,,,,,,,,,0.999,0.999,1517.099389500101,1517.102341299993,1518.1000058000209,1518.1087192000123,1518.1159645000007,1528.3118807000574,space,10.191530200070702,None,1528.377206300036,1528.391551900073,1528.391551900073,1528.391551900073,1528.391551900073,1534.565720600076,1534.565720600076,1534.8170251999982,space,0.24733980000019073,None,3,2.020568500040099,2,3.694814399932511,2,6.163319700048305,,,,,,,,,,,,,,,,,,,,,1,001,2025-05-29_10h05.21.873,TEST_eye_tracker,2024.2.4,59.95300879494722,2025-05-29 10h05.44.983220 +0200,
6,C:\Users\matte\OneDrive - Università degli Studi di Padova\Desktop\msc_experiment\responses_files\prompt_6.xlsx,C:\Users\matte\OneDrive - Università degli Studi di Padova\Desktop\msc_experiment\responses_files\img_prompt_6.jpg,0.999,22,22,0,,,0.999,,,space,12.08269619999919,None,,,,,,,,,,,,,1,1.4973929999396205,space,0.23390799993649125,None,0,22,22,5,,,,,,,,,,,,,,,,,,,,,,,,,,,,,,,,,,,,,,,,,,,,,,,,,,,,,,,,,,,,,1535.0742877000012,1535.079967000056,1535.079967000056,1536.6015248000622,1536.6015248000622,1536.8535684000235,1,1.4973929999396205,space,0.23390799993649125,None,,,,,,,,,1,001,2025-05-29_10h05.21.873,TEST_eye_tracker,2024.2.4,59.95300879494722,2025-05-29 10h05.44.983220 +0200,
11,C:\Users\matte\OneDrive - Università degli Studi di Padova\Desktop\msc_experiment\responses_files\prompt_11.xlsx,C:\Users\matte\OneDrive - Università degli Studi di Padova\Desktop\msc_experiment\responses_files\img_prompt_11.jpg,0.999,0,0,0,11,11.2,"The predominant airplane on display is blue, with additional stripes in red, white, and green.",3.333333333333333,gpt-4v,space,8.906821200042032,None,space,2.340206400025636,None,space,0.22605339996516705,None,5,1.39913020003587,5,2.3655763000715524,5,2.8782952999463305,,,,,,0,23,23,10,0,0,0,1,1546.4937136000954,,,,,,,,,,,,,,,,1536.9239925000584,1536.9269341999898,1537.419470300083,1537.4422940000659,1537.4491200000048,1537.4491200000048,1537.4491200000048,1546.3644094000338,space,8.906821200042032,None,0.999,0.999,1546.4909016001038,1546.4937136000954,1547.4790750000393,1547.4826424000785,1547.495469000074,1549.850479900022,space,2.340206400025636,None,1549.9181541000726,1549.933747800067,1549.933747800067,1549.933747800067,1549.933747800067,1552.8184214000357,1552.8184214000357,1553.0574875000166,space,0.22605339996516705,None,5,1.39913020003587,5,2.3655763000715524,5,2.8782952999463305,,,,,,,,,,,,,1537.4491200000048,,,,,,,,1,001,2025-05-29_10h05.21.873,TEST_eye_tracker,2024.2.4,59.95300879494722,2025-05-29 10h05.44.983220 +0200,
11,C:\Users\matte\OneDrive - Università degli Studi di Padova\Desktop\msc_experiment\responses_files\prompt_11.xlsx,C:\Users\matte\OneDrive - Università degli Studi di Padova\Desktop\msc_experiment\responses_files\img_prompt_11.jpg,0.999,1,1,0,11,11.1,The predominant airplane on display is blue.,2,llava1.5-13b,space,8.906821200042032,None,space,3.8557427000487223,None,space,2.7832589000463486,None,4,0.8018339000409469,4,2.3015608999412507,5,6.7824479000410065,,,,,,0,23,23,10,0,1,1,0,1553.0646158000454,,,,,,,,,,,,,,,,,,,,,,,,,,,0.999,0.999,1553.0606554000406,1553.0646158000454,1554.052243800019,1554.054728200077,1554.0685032000765,1557.9403405000921,space,3.8557427000487223,None,1558.0059513000306,1558.0200609000167,1558.0200609000167,1558.0200609000167,1558.0200609000167,1562.2219286999898,1562.2219286999898,1565.0138261000393,space,2.7832589000463486,None,4,0.8018339000409469,4,2.3015608999412507,5,6.7824479000410065,1554.0685032000765,,,,,,,,,,,,,,,,,,,,1,001,2025-05-29_10h05.21.873,TEST_eye_tracker,2024.2.4,59.95300879494722,2025-05-29 10h05.44.983220 +0200,
11,C:\Users\matte\OneDrive - Università degli Studi di Padova\Desktop\msc_experiment\responses_files\prompt_11.xlsx,C:\Users\matte\OneDrive - Università degli Studi di Padova\Desktop\msc_experiment\responses_files\img_prompt_11.jpg,0.999,23,23,0,,,0.999,,,space,8.906821200042032,None,,,,,,,,,,,,,1,1.2570326999993995,space,0.2551158999558538,None,0,23,23,10,,,,,,,,,,,,,,,,,,,,,,,,,,,,,,,,,,,,,,,,,,,,,,,,,,,,,,,,,,,,,1565.2950130000245,1565.3004389000125,1565.3004389000125,1566.5809903000481,1566.5809903000481,1566.8498439000687,1,1.2570326999993995,space,0.2551158999558538,None,,,,,,,,,1,001,2025-05-29_10h05.21.873,TEST_eye_tracker,2024.2.4,59.95300879494722,2025-05-29 10h05.44.983220 +0200,
21,C:\Users\matte\OneDrive - Università degli Studi di Padova\Desktop\msc_experiment\responses_files\prompt_21.xlsx,C:\Users\matte\OneDrive - Università degli Studi di Padova\Desktop\msc_experiment\responses_files\img_prompt_21.jpg,0.999,0,0,0,21,21.1,"There are no birds or clouds visible in the photo you provided. The image shows a toy figure of a surfer on a surfboard against a clear blue sky. If you're looking for a photo with birds and clouds, you may want to try a different image or specify another scene you'd like to see.",1.333333333333333,gpt-4v,space,7.083271199953742,None,space,9.041364700067788,None,space,0.44898639991879463,None,5,0.876610100036487,5,1.7065316999796778,5,2.3376802999991924,,,,,,0,24,24,20,0,0,0,0,1574.6826213999884,,,,,,,,,,,,,,,,1566.9503862001002,1566.9538633000338,1567.4486816000426,1567.4665988000343,1567.472762600053,1567.472762600053,1567.472762600053,1574.5614085000707,space,7.083271199953742,None,0.999,0.999,1574.6802231000038,1574.6826213999884,1575.6736182000022,1575.6770539000863,1575.6902944000904,1584.735143100028,space,9.041364700067788,None,1584.8081921000266,1584.8234596000984,1584.8234596000984,1584.8234596000984,1584.8234596000984,1587.1705410000868,1587.1705410000868,1587.6355817000149,space,0.44898639991879463,None,5,0.876610100036487,5,1.7065316999796778,5,2.3376802999991924,,,,,,,,,,,,,,,,,,,,,1,001,2025-05-29_10h05.21.873,TEST_eye_tracker,2024.2.4,59.95300879494722,2025-05-29 10h05.44.983220 +0200,
21,C:\Users\matte\OneDrive - Università degli Studi di Padova\Desktop\msc_experiment\responses_files\prompt_21.xlsx,C:\Users\matte\OneDrive - Università degli Studi di Padova\Desktop\msc_experiment\responses_files\img_prompt_21.jpg,0.999,1,1,0,21,21.2,"No, there are no birds in the image. The image features a man on a surfboard, which is placed on a pole or a stick, and he is riding it in the air. The sky in the image is blue and cloudy, but there are no birds visible. The focus of the image is on the man and his surfboard, showcasing his skill and balance as he performs his trick. The presence of a surfboard and a man riding it on a stick or pole suggests that this could be a creative or artistic representation of surfing, or perhaps a unique form of entertainment or advertisement. The image captures the essence of surfing, highlighting the excitement and thrill that comes with the sport, as well as the skill and agility required to perform such a feat.",2.333333333333333,LLaVA-RLHF-13b-v1.5-336,space,7.083271199953742,None,space,45.882806300069205,None,space,0.4151793000055477,None,4,3.3332743999781087,4,6.0067883000010625,5,7.112292599980719,,,,,,0,24,24,20,0,1,1,1,1587.6518274000846,,,,,,,,,,,,,,,,,,,,,,,,,,,0.999,0.999,1587.6376408000942,1587.6518274000846,1588.6373459000606,1588.65303590009,1588.6565639000619,1634.5507773000281,space,45.882806300069205,None,1634.619951800094,1634.6350722000934,1634.6350722000934,1634.6350722000934,1634.6350722000934,1641.756141400081,1641.756141400081,1642.1742732001003,space,0.4151793000055477,None,4,3.3332743999781087,4,6.0067883000010625,5,7.112292599980719,,,,,,,,,,,,,,,,,,,,,1,001,2025-05-29_10h05.21.873,TEST_eye_tracker,2024.2.4,59.95300879494722,2025-05-29 10h05.44.983220 +0200,
21,C:\Users\matte\OneDrive - Università degli Studi di Padova\Desktop\msc_experiment\responses_files\prompt_21.xlsx,C:\Users\matte\OneDrive - Università degli Studi di Padova\Desktop\msc_experiment\responses_files\img_prompt_21.jpg,0.999,24,24,0,,,0.999,,,space,7.083271199953742,None,,,,,,,,,,,,,1,1.4791761999949813,space,5.565172799979337,None,0,24,24,20,,,,,,,,,,,,,,,,,,,,,,,,,,,,,,,,,,,,,,,,,,,,,,,,,,,,,,,,,,,,,1642.449830400059,1642.4555256000021,1642.4555256000021,1643.958420400042,1643.958420400042,1649.5324627000373,1,1.4791761999949813,space,5.565172799979337,None,,,,,,,,,1,001,2025-05-29_10h05.21.873,TEST_eye_tracker,2024.2.4,59.95300879494722,2025-05-29 10h05.44.983220 +0200,
26,C:\Users\matte\OneDrive - Università degli Studi di Padova\Desktop\msc_experiment\responses_files\prompt_26.xlsx,C:\Users\matte\OneDrive - Università degli Studi di Padova\Desktop\msc_experiment\responses_files\img_prompt_26.jpg,0.999,0,0,0,26,26.2,"The purpose of the Om chanting in the image is to promote positive transformation and meditation. The group of people is sitting in a circle, focusing on the chant, which is a deep mantra that helps them connect with their inner selves and achieve a state of mindfulness. This practice can lead to personal growth, relaxation, and stress reduction. The image also suggests that the Om chanting is being used as a tool for positive transformation, which can be achieved through meditation and mindfulness practices.",5,llava1.5-13b,space,14.814914799993858,None,space,14.986742199980654,None,space,5.724241900024936,None,5,1.217943000025116,5,3.5360956999938935,5,4.42781600006856,,,,,,0,25,25,25,0,0,0,1,1665.0835791000864,,,,,,,,,,,,,,,,1649.602229500073,1649.6052650000202,1650.0987378000282,1650.1271434000228,1650.1330984000815,1650.1330984000815,1650.1330984000815,1664.9518458000384,space,14.814914799993858,None,0.999,0.999,1665.0808956000255,1665.0835791000864,1666.0806308001047,1666.0905580000253,1666.0971459000139,1681.097419800004,space,14.986742199980654,None,1681.165568000055,1681.1804051999934,1681.1804051999934,1681.1804051999934,1681.1804051999934,1685.616400900064,1685.616400900064,1691.3565542000579,space,5.724241900024936,None,5,1.217943000025116,5,3.5360956999938935,5,4.42781600006856,,,,,,,,,,,,,,,,,,,,,1,001,2025-05-29_10h05.21.873,TEST_eye_tracker,2024.2.4,59.95300879494722,2025-05-29 10h05.44.983220 +0200,
26,C:\Users\matte\OneDrive - Università degli Studi di Padova\Desktop\msc_experiment\responses_files\prompt_26.xlsx,C:\Users\matte\OneDrive - Università degli Studi di Padova\Desktop\msc_experiment\responses_files\img_prompt_26.jpg,0.999,1,1,0,26,26.1,The purpose of the Om chanting mentioned in the image is to meditate and chant deep mantra chants for positive transformation.,3,Qwen-VL-Chat,space,14.814914799993858,None,space,4.13114549999591,None,space,0.21448030008468777,None,4,0.9886334999464452,3,2.4223968000151217,5,4.18146120000165,,,,,,0,25,25,25,0,1,1,0,1691.3722764000995,,,,,,,,,,,,,,,,,,,,,,,,,,,0.999,0.999,1691.358510900056,1691.3722764000995,1692.3574907000875,1692.3703167000785,1692.37696090003,1696.511829800089,space,4.13114549999591,None,1696.5930171000073,1696.6124589000829,1696.6124589000829,1696.6124589000829,1696.6124589000829,1700.7982646001037,1700.7982646001037,1701.016431300086,space,0.21448030008468777,None,4,0.9886334999464452,3,2.4223968000151217,5,4.18146120000165,,,,,,,,,,,,,,,,,,,,,1,001,2025-05-29_10h05.21.873,TEST_eye_tracker,2024.2.4,59.95300879494722,2025-05-29 10h05.44.983220 +0200,
26,C:\Users\matte\OneDrive - Università degli Studi di Padova\Desktop\msc_experiment\responses_files\prompt_26.xlsx,C:\Users\matte\OneDrive - Università degli Studi di Padova\Desktop\msc_experiment\responses_files\img_prompt_26.jpg,0.999,25,25,0,,,0.999,,,space,14.814914799993858,None,,,,,,,,,,,,,1,1.3522299999604002,space,0.20827770000323653,None,0,25,25,25,,,,,,,,,,,,,,,,,,,,,,,,,,,,,,,,,,,,,,,,,,,,,,,,,,,,,,,,,,,,,1701.2854148000479,1701.2908880000468,1701.2908880000468,1702.6669260000344,1702.6669260000344,1702.8854380000848,1,1.3522299999604002,space,0.20827770000323653,None,,,,,,,,,1,001,2025-05-29_10h05.21.873,TEST_eye_tracker,2024.2.4,59.95300879494722,2025-05-29 10h05.44.983220 +0200,
14,C:\Users\matte\OneDrive - Università degli Studi di Padova\Desktop\msc_experiment\responses_files\prompt_14.xlsx,C:\Users\matte\OneDrive - Università degli Studi di Padova\Desktop\msc_experiment\responses_files\img_prompt_14.jpg,0.999,0,0,0,14,14.1,"The quote "Little things can grow big" is significant because it emphasizes the importance of paying attention to small details and considering their potential impact. It suggests that seemingly insignificant occurrences or actions can have a significant impact on the bigger picture, and that one should not underestimate the power of small things. This quote can be applied in various contexts, such as personal growth, business, or even global issues, as it reminds us to be mindful of our actions and the potential consequences they may have. It encourages us to take a holistic view of life and recognize the interconnectedness of all things, even if they appear small at first glance.",2.333333333333333,Qwen-VL-Chat,space,9.66091860004235,None,space,18.94409020000603,None,space,0.18538679997436702,None,5,1.2500088999513537,5,2.1045726999873295,5,2.859498899895698,,,,,,0,26,26,13,0,0,0,0,1713.3324489000952,,,,,,,,,,,,,,,,1702.9665675000288,1702.9707468000706,1703.4689981000265,1703.5103551000357,1703.5189137000125,1703.5189137000125,1703.5189137000125,1713.1971695000539,space,9.66091860004235,None,0.999,0.999,1713.3301799000474,1713.3324489000952,1714.3290327000432,1714.3509691000218,1714.3552907000994,1733.315744200023,space,18.94409020000603,None,1733.383454900002,1733.397740400047,1733.397740400047,1733.397740400047,1733.397740400047,1736.2670773999998,1736.2670773999998,1736.4689457000932,space,0.18538679997436702,None,5,1.2500088999513537,5,2.1045726999873295,5,2.859498899895698,,,,,,,,,,,,,,,,,,,,,1,001,2025-05-29_10h05.21.873,TEST_eye_tracker,2024.2.4,59.95300879494722,2025-05-29 10h05.44.983220 +0200,
14,C:\Users\matte\OneDrive - Università degli Studi di Padova\Desktop\msc_experiment\responses_files\prompt_14.xlsx,C:\Users\matte\OneDrive - Università degli Studi di Padova\Desktop\msc_experiment\responses_files\img_prompt_14.jpg,0.999,1,1,0,14,14.2,"The quote "Little things can grow big" is significant because it emphasizes the importance of small actions and their potential to have a significant impact over time. In the image, the shadows of four people are cast on the ground, suggesting that even the smallest of individuals can contribute to something bigger. This idea can be applied to various aspects of life, such as personal growth, relationships, or even community development. It serves as a reminder that even the smallest actions or contributions can have a lasting impact and contribute to the growth and success of a larger entity or goal.",1,llava1.5-13b,space,9.66091860004235,None,space,17.210328200017102,None,space,1.4249455999815837,None,3,2.7445443000178784,4,4.922787600080483,4,6.260485199978575,,,,,,0,26,26,13,0,1,1,1,1736.4749696000945,,,,,,,,,,,,,,,,,,,,,,,,,,,0.999,0.999,1736.472228000057,1736.4749696000945,1737.4697534000734,1737.4841690000612,1737.4890628000721,1754.7037743000546,space,17.210328200017102,None,1754.7733586000977,1754.7887251999928,1754.7887251999928,1754.7887251999928,1754.7887251999928,1761.0585060000885,1761.0585060000885,1762.4943381000776,space,1.4249455999815837,None,3,2.7445443000178784,4,4.922787600080483,4,6.260485199978575,1737.4890628000721,,,,,,,,,,,,,,,,,,,,1,001,2025-05-29_10h05.21.873,TEST_eye_tracker,2024.2.4,59.95300879494722,2025-05-29 10h05.44.983220 +0200,
14,C:\Users\matte\OneDrive - Università degli Studi di Padova\Desktop\msc_experiment\responses_files\prompt_14.xlsx,C:\Users\matte\OneDrive - Università degli Studi di Padova\Desktop\msc_experiment\responses_files\img_prompt_14.jpg,0.999,26,26,0,,,0.999,,,space,9.66091860004235,None,,,,,,,,,,,,,1,1.1117087000748143,space,0.1865610999520868,None,0,26,26,13,,,,,,,,,,,,,,,,,,,,,,,,,,,,,,,,,,,,,,,,,,,,,,,,,,,,,,,,,,,,,1762.7872118999949,1762.7923774000956,1762.7923774000956,1763.9286906000925,1763.9286906000925,1764.1303312000819,1,1.1117087000748143,space,0.1865610999520868,None,,,,,,,,,1,001,2025-05-29_10h05.21.873,TEST_eye_tracker,2024.2.4,59.95300879494722,2025-05-29 10h05.44.983220 +0200,
7,C:\Users\matte\OneDrive - Università degli Studi di Padova\Desktop\msc_experiment\responses_files\prompt_7.xlsx,C:\Users\matte\OneDrive - Università degli Studi di Padova\Desktop\msc_experiment\responses_files\img_prompt_7.jpg,0.999,0,0,0,7,7.2,"The image shows two people holding hands, one person's hand on top of another. They are smiling and seem to be at peace with each other. This is a beautiful moment that depicts love between two individuals who have been together for some time or even forever.",2.333333333333333,VisualGLM-6b,space,15.412864599958993,None,space,9.789112099912018,None,space,0.4812955000670627,None,1,1.1329271999420598,1,1.7208088000770658,2,2.742722800001502,,,,,,0,27,27,6,0,0,0,1,1780.2594119000714,,,,,,,,,,,,,,,,1764.2112747000065,1764.2141958000138,1764.7122827999992,1764.7284002000233,1764.734810300055,1764.734810300055,1764.734810300055,1780.1635328000411,space,15.412864599958993,None,0.999,0.999,1780.256815000088,1780.2594119000714,1781.245618600049,1781.249119300046,1781.2623023000779,1791.0577648000326,space,9.789112099912018,None,1791.1249307000544,1791.1391915000277,1791.1391915000277,1791.1391915000277,1791.1391915000277,1793.8912748000585,1793.8912748000585,1794.3947335000848,space,0.4812955000670627,None,1,1.1329271999420598,1,1.7208088000770658,2,2.742722800001502,,,,,,,,,,,,,,,,,,,,,1,001,2025-05-29_10h05.21.873,TEST_eye_tracker,2024.2.4,59.95300879494722,2025-05-29 10h05.44.983220 +0200,
