n_prompt,prompt_file,image_file,prompt_text,related_prompt,n_resp,resp_text,rank,model,Trial.thisRepN,Trial.thisTrialN,Trial.thisN,Trial.thisIndex,per_answer.thisRepN,per_answer.thisTrialN,per_answer.thisN,per_answer.thisIndex,thisRow.t,notes,Intro_1.started,key_resp_5.started,textbox.started,Intro_1.stopped,key_resp_5.keys,key_resp_5.rt,key_resp_5.duration,Intro_2.started,textbox_2.started,key_resp_8.started,Intro_2.stopped,key_resp_8.keys,key_resp_8.rt,key_resp_8.duration,prompt_number.started,text.started,prompt_number.stopped,prompt.started,Prompt_.started,image.started,key_resp_4.started,prompt.stopped,key_resp_4.keys,key_resp_4.rt,key_resp_4.duration,Cross.started,prompt_text,resp_text,cross_white.started,Cross.stopped,trial_textbox.started,key_resp_2.started,trial_textbox.stopped,key_resp_2.keys,key_resp_2.rt,key_resp_2.duration,rating.started,question_useful_2.started,Inaccurate_Faithful.started,Not_Helpful_Helpful.started,ViolentHarmless.started,key_resp_6.started,press_space.started,rating.stopped,key_resp_6.keys,key_resp_6.rt,key_resp_6.duration,Inaccurate_Faithful.response,Inaccurate_Faithful.rt,Not_Helpful_Helpful.response,Not_Helpful_Helpful.rt,ViolentHarmless.response,ViolentHarmless.rt,ranking.started,question_ranking.started,ranking_better.started,key_resp_7.started,text_2.started,ranking.stopped,ranking_better.response,ranking_better.rt,key_resp_7.keys,key_resp_7.rt,key_resp_7.duration,text.stopped,End.started,Bye_message.started,press_to_end_exp.started,End.stopped,press_to_end_exp.keys,press_to_end_exp.rt,press_to_end_exp.duration,participant,session,date,expName,psychopyVersion,frameRate,expStart,
,,,,,,,,,,,,,,,,,,,0.004645300003176089,0.01872400000138441,0.01872400000138441,43.293359399998735,space,43.26346840000042,None,,,,,,,,,,,,,,,,,,,,,,,,,,,,,,,,,,,,,,,,,,,,,,,,,,,,,,,,,,,,,,,,,,1,001,2025-09-04_09h21.49.861,TEST_eye_tracker,2024.1.5,None,2025-09-04 09h22.00.081839 +0200,
,,,,,,,,,,,,,,,,,,,,,,,,,,43.29341700000077,43.324886499998684,43.324886499998684,55.8259212999983,space,12.477731300001324,None,,,,,,,,,,,,,,,,,,,,,,,,,,,,,,,,,,,,,,,,,,,,,,,,,,,,,,,,,,,1,001,2025-09-04_09h21.49.861,TEST_eye_tracker,2024.1.5,None,2025-09-04 09h22.00.081839 +0200,
5,C:\Users\id05278\Desktop\MLLM matteo\Task and screenshots\experiment-20250603T085947Z-1-001\experiment\responses_files\prompt_5.xlsx,C:\Users\id05278\Desktop\MLLM matteo\Task and screenshots\experiment-20250603T085947Z-1-001\experiment\responses_files\img_prompt_5.jpg,What are the key elements in this picture?,5,5.2,"The main element of this image is a man and a young boy sitting at a table, enjoying breakfast together. They are both eating doughnuts with sprinkles on them while they enjoy their meal. This scene suggests that they might be spending time as family members or friends who share common interests such as food.",3.666666666666667,VisualGLM-6b,0,0,0,4,0,0,0,1,76.50950149999699,,,,,,,,,,,,,,,,55.854097000003094,55.867653399996925,56.35829499999818,56.35831930000131,58.44689929999731,58.44689929999731,58.44689929999731,75.9941089999993,space,17.539166099995782,None,76.50077259999671,What are the key elements in this picture?,"The main element of this image is a man and a young boy sitting at a table, enjoying breakfast together. They are both eating doughnuts with sprinkles on them while they enjoy their meal. This scene suggests that they might be spending time as family members or friends who share common interests such as food.",76.50950149999699,77.49160980000306,77.49163270000281,77.52957449999667,93.92567260000214,space,16.376519599994936,None,94.13553529999626,94.5175401000015,94.5175401000015,94.5175401000015,94.5175401000015,108.68141269999614,108.68141269999614,109.73115719999623,space,1.0169757999974536,None,3,8.61614980000013,3,11.485032600001432,5,14.120054400002118,,,,,,,,,,,,,,,,,,,,1,001,2025-09-04_09h21.49.861,TEST_eye_tracker,2024.1.5,None,2025-09-04 09h22.00.081839 +0200,
5,C:\Users\id05278\Desktop\MLLM matteo\Task and screenshots\experiment-20250603T085947Z-1-001\experiment\responses_files\prompt_5.xlsx,C:\Users\id05278\Desktop\MLLM matteo\Task and screenshots\experiment-20250603T085947Z-1-001\experiment\responses_files\img_prompt_5.jpg,What are the key elements in this picture?,5,5.1,"The image features a man and a young boy sitting at a table, enjoying a meal together. The man is holding a doughnut, while the boy is holding a bagel. They are both sitting at the table, surrounded by various food items, including a plate of doughnuts, a bagel, and a cup of coffee. There are also a few other doughnuts scattered around the table, indicating that they are part of the meal. The scene is warm and inviting, showcasing a father and son enjoying a casual meal together.",4.333333333333333,instructblip-vicuna-13b,0,0,0,4,0,1,1,0,109.75855050000246,,,,,,,,,,,,,,,,,,,,,,,,,,,109.73186700000224,What are the key elements in this picture?,"The image features a man and a young boy sitting at a table, enjoying a meal together. The man is holding a doughnut, while the boy is holding a bagel. They are both sitting at the table, surrounded by various food items, including a plate of doughnuts, a bagel, and a cup of coffee. There are also a few other doughnuts scattered around the table, indicating that they are part of the meal. The scene is warm and inviting, showcasing a father and son enjoying a casual meal together.",109.75855050000246,110.75832000000082,110.75833330000023,110.79288180000003,132.7592564000006,space,21.938445700005104,None,132.97395590000087,133.01315720000275,133.01315720000275,133.01315720000275,133.01315720000275,141.45842889999767,141.45842889999767,142.13125279999804,space,0.6642486999990069,None,5,3.448146100003214,5,6.754715600000054,5,8.41882970000006,,,,,,,,,,,,,,,,,,,,1,001,2025-09-04_09h21.49.861,TEST_eye_tracker,2024.1.5,None,2025-09-04 09h22.00.081839 +0200,
5,C:\Users\id05278\Desktop\MLLM matteo\Task and screenshots\experiment-20250603T085947Z-1-001\experiment\responses_files\prompt_5.xlsx,C:\Users\id05278\Desktop\MLLM matteo\Task and screenshots\experiment-20250603T085947Z-1-001\experiment\responses_files\img_prompt_5.jpg,What are the key elements in this picture?,,,0.888,,,0,0,0,4,,,,,,,,,,,,,,,,,,,,,,,,,,,,,,,,,What are the key elements in this picture?,0.888,,,,,,,,,,,,,,,,,,,,,,,,,,142.16432499999792,142.17997689999902,142.17997689999902,145.49170459999732,145.49170459999732,147.32714409999608,2,3.260976200006553,space,1.8300744000007398,None,,,,,,,,,1,001,2025-09-04_09h21.49.861,TEST_eye_tracker,2024.1.5,None,2025-09-04 09h22.00.081839 +0200,
22,C:\Users\id05278\Desktop\MLLM matteo\Task and screenshots\experiment-20250603T085947Z-1-001\experiment\responses_files\prompt_22.xlsx,C:\Users\id05278\Desktop\MLLM matteo\Task and screenshots\experiment-20250603T085947Z-1-001\experiment\responses_files\img_prompt_22.jpg,What is the website mentioned in the image?,22,22.2,The website mentioned in the image is www.tamilkavithaial.com.,4.333333333333333,Qwen-VL-Chat,0,1,1,21,0,0,0,1,162.0197171999971,,,,,,,,,,,,,,,,147.39663969999674,147.418282300001,147.92491309999605,147.9249245999963,147.96437680000236,147.96437680000236,147.96437680000236,161.56084739999642,space,13.581900299999688,None,162.01173530000233,What is the website mentioned in the image?,The website mentioned in the image is www.tamilkavithaial.com.,162.0197171999971,163.02562200000102,163.0256395999968,163.05835279999883,168.49270350000006,space,5.432213499996578,None,168.6953899,168.73367580000195,168.73367580000195,168.73367580000195,168.73367580000195,181.19157679999626,181.19157679999626,181.89869319999707,space,0.690851899998961,None,3,8.195072000002256,4,10.32977679999749,5,12.431794500000251,,,,,,,,,,,,,,,,,,,,1,001,2025-09-04_09h21.49.861,TEST_eye_tracker,2024.1.5,None,2025-09-04 09h22.00.081839 +0200,
22,C:\Users\id05278\Desktop\MLLM matteo\Task and screenshots\experiment-20250603T085947Z-1-001\experiment\responses_files\prompt_22.xlsx,C:\Users\id05278\Desktop\MLLM matteo\Task and screenshots\experiment-20250603T085947Z-1-001\experiment\responses_files\img_prompt_22.jpg,What is the website mentioned in the image?,22,22.1,"The website mentioned in the image is "Google". It appears to be a search engine, and it has an interesting photo of a girl standing next to a flower with a blue sky behind her. There are also words written on the page that mention Google as well.",2,VisualGLM-6b,0,1,1,21,0,1,1,0,181.92499629999656,,,,,,,,,,,,,,,,,,,,,,,,,,,181.8992356000017,What is the website mentioned in the image?,"The website mentioned in the image is "Google". It appears to be a search engine, and it has an interesting photo of a girl standing next to a flower with a blue sky behind her. There are also words written on the page that mention Google as well.",181.92499629999656,182.9250746999969,182.92509959999734,182.96052880000207,193.49398700000165,space,10.50497620000533,None,193.69398979999823,193.7324415999974,193.7324415999974,193.7324415999974,193.7324415999974,199.3251850000015,199.3251850000015,200.33096169999772,space,0.9981843999994453,None,2,1.6282258999999613,1,3.930410499997379,5,5.5659491999977035,,,,,,,,,,,,,,,,,,,,1,001,2025-09-04_09h21.49.861,TEST_eye_tracker,2024.1.5,None,2025-09-04 09h22.00.081839 +0200,
22,C:\Users\id05278\Desktop\MLLM matteo\Task and screenshots\experiment-20250603T085947Z-1-001\experiment\responses_files\prompt_22.xlsx,C:\Users\id05278\Desktop\MLLM matteo\Task and screenshots\experiment-20250603T085947Z-1-001\experiment\responses_files\img_prompt_22.jpg,What is the website mentioned in the image?,,,0.888,,,0,1,1,21,,,,,,,,,,,,,,,,,,,,,,,,,,,,,,,,,What is the website mentioned in the image?,0.888,,,,,,,,,,,,,,,,,,,,,,,,,,200.3945739999981,200.41000050000002,200.41000050000002,203.09250859999884,203.09250859999884,203.76686319999862,1,2.6315052999998443,space,0.6380788999958895,None,,,,,,,,,1,001,2025-09-04_09h21.49.861,TEST_eye_tracker,2024.1.5,None,2025-09-04 09h22.00.081839 +0200,
30,C:\Users\id05278\Desktop\MLLM matteo\Task and screenshots\experiment-20250603T085947Z-1-001\experiment\responses_files\prompt_30.xlsx,C:\Users\id05278\Desktop\MLLM matteo\Task and screenshots\experiment-20250603T085947Z-1-001\experiment\responses_files\img_prompt_30.jpg,What is the main topic of the report mentioned in the image?,30,30.1,"The main topic of the report mentioned in the image is "Access to Justice for Internally Displaced and Ethnic Minority Women." The report appears to be an analytical study conducted in 2015, focusing on the challenges and issues faced by women who are internally displaced or belong to ethnic minorities in accessing justice.",4.666666666666667,gpt-4v,0,2,2,29,0,0,0,0,234.80235869999888,,,,,,,,,,,,,,,,203.82894849999866,203.83950760000153,204.3255904999969,204.32560340000055,204.3606787000026,204.3606787000026,204.3606787000026,234.52761170000304,space,30.13677810000081,None,234.79404929999873,What is the main topic of the report mentioned in the image?,"The main topic of the report mentioned in the image is "Access to Justice for Internally Displaced and Ethnic Minority Women." The report appears to be an analytical study conducted in 2015, focusing on the challenges and issues faced by women who are internally displaced or belong to ethnic minorities in accessing justice.",234.80235869999888,235.79189190000034,235.79190550000203,235.82688549999875,251.45936229999643,space,15.615124500000093,None,251.66031510000175,251.69976389999647,251.69976389999647,251.69976389999647,251.69976389999647,256.1251284999962,256.1251284999962,256.73148650000076,space,0.5727533000026597,None,4,1.3283395999969798,4,2.965276499999163,5,4.398999400000321,,,,,,,,,,,,204.3606787000026,,,,,,,,1,001,2025-09-04_09h21.49.861,TEST_eye_tracker,2024.1.5,None,2025-09-04 09h22.00.081839 +0200,
30,C:\Users\id05278\Desktop\MLLM matteo\Task and screenshots\experiment-20250603T085947Z-1-001\experiment\responses_files\prompt_30.xlsx,C:\Users\id05278\Desktop\MLLM matteo\Task and screenshots\experiment-20250603T085947Z-1-001\experiment\responses_files\img_prompt_30.jpg,What is the main topic of the report mentioned in the image?,30,30.2,"The purple color image shows a woman standing on top of a mountain, holding a book. She has long hair and wears a black dress with white sleeves. The background appears to be a dark forest or a deep blue sky.",2.333333333333333,VisualGLM-6b,0,2,2,29,0,1,1,1,256.7586322999996,,,,,,,,,,,,,,,,,,,,,,,,,,,256.7320921999999,What is the main topic of the report mentioned in the image?,"The purple color image shows a woman standing on top of a mountain, holding a book. She has long hair and wears a black dress with white sleeves. The background appears to be a dark forest or a deep blue sky.",256.7586322999996,257.75868179999816,257.7586945000003,257.79317949999677,269.0598624999984,space,11.265461399998458,None,269.25665099999605,269.29620460000297,269.29620460000297,269.29620460000297,269.29620460000297,273.6583320999998,273.6583320999998,274.2645904000019,space,0.5833106999998563,None,1,1.9984783999971114,1,3.1005042000033427,5,4.336137400001462,,,,,,,,,,,,,,,,,,,,1,001,2025-09-04_09h21.49.861,TEST_eye_tracker,2024.1.5,None,2025-09-04 09h22.00.081839 +0200,
30,C:\Users\id05278\Desktop\MLLM matteo\Task and screenshots\experiment-20250603T085947Z-1-001\experiment\responses_files\prompt_30.xlsx,C:\Users\id05278\Desktop\MLLM matteo\Task and screenshots\experiment-20250603T085947Z-1-001\experiment\responses_files\img_prompt_30.jpg,What is the main topic of the report mentioned in the image?,,,0.888,,,0,2,2,29,,,,,,,,,,,,,,,,,,,,,,,,,,,,,,,,,What is the main topic of the report mentioned in the image?,0.888,,,,,,,,,,,,,,,,,,,,,,,,,,274.3285797999997,274.3433156999963,274.3433156999963,276.5916988999961,276.5916988999961,277.2953008999975,1,2.1967353000000003,space,0.6977790000019013,None,,,,,,,,,1,001,2025-09-04_09h21.49.861,TEST_eye_tracker,2024.1.5,None,2025-09-04 09h22.00.081839 +0200,
13,C:\Users\id05278\Desktop\MLLM matteo\Task and screenshots\experiment-20250603T085947Z-1-001\experiment\responses_files\prompt_13.xlsx,C:\Users\id05278\Desktop\MLLM matteo\Task and screenshots\experiment-20250603T085947Z-1-001\experiment\responses_files\img_prompt_13.jpg,What is the size of the bowl in the image?,13,13.1,The bowl in the image is small.,2.333333333333333,llava1.5-7b,0,3,3,12,0,0,0,0,294.528853900003,,,,,,,,,,,,,,,,277.35786930000177,277.3682082000014,277.8586654000028,277.8586867999984,277.89828390000184,277.89828390000184,277.89828390000184,294.16101969999727,space,16.256268199998885,None,294.5207767000029,What is the size of the bowl in the image?,The bowl in the image is small.,294.528853900003,295.525272400002,295.52528280000115,295.558589399996,301.1595499000032,space,5.580469399996218,None,301.354147500002,301.39309630000207,301.39309630000207,301.39309630000207,301.39309630000207,316.8252613000004,316.8252613000004,317.3982266000021,space,0.5525888999982271,None,4,7.901759500004118,3,10.770231599999534,5,15.405665700003738,,,,,,,,,,,,,,,,,,,,1,001,2025-09-04_09h21.49.861,TEST_eye_tracker,2024.1.5,None,2025-09-04 09h22.00.081839 +0200,
13,C:\Users\id05278\Desktop\MLLM matteo\Task and screenshots\experiment-20250603T085947Z-1-001\experiment\responses_files\prompt_13.xlsx,C:\Users\id05278\Desktop\MLLM matteo\Task and screenshots\experiment-20250603T085947Z-1-001\experiment\responses_files\img_prompt_13.jpg,What is the size of the bowl in the image?,13,13.2,"The bowl in the image contains miniature items, as indicated by the comparison with the penny. To provide an accurate estimate of the bowl's size, I would need to know the dimensions of the coin, which appears to be a U.S. penny. U.S. pennies have a diameter of 0.75 inches (19.05 mm). By comparing the bowl with the penny, we can visually estimate that the bowl is slightly more than twice the diameter of the penny, making the bowl approximately 1.5 to 2 inches in diameter. However, this is a rough estimate, and the actual size could vary.",3.333333333333333,gpt-4v,0,3,3,12,0,1,1,1,317.42524579999736,,,,,,,,,,,,,,,,,,,,,,,,,,,317.3988947999969,What is the size of the bowl in the image?,"The bowl in the image contains miniature items, as indicated by the comparison with the penny. To provide an accurate estimate of the bowl's size, I would need to know the dimensions of the coin, which appears to be a U.S. penny. U.S. pennies have a diameter of 0.75 inches (19.05 mm). By comparing the bowl with the penny, we can visually estimate that the bowl is slightly more than twice the diameter of the penny, making the bowl approximately 1.5 to 2 inches in diameter. However, this is a rough estimate, and the actual size could vary.",317.42524579999736,318.42637919999834,318.42639280000003,318.45980560000316,343.0602601999999,space,24.598418000001402,None,343.27529859999777,343.3144572000019,343.3144572000019,343.3144572000019,343.3144572000019,347.5585113999987,347.5585113999987,348.3314640000026,space,0.7475143000046955,None,4,1.280355499999132,4,2.4831747000062023,5,4.218478299997514,,,,,,,,,,,,,,,,,,,,1,001,2025-09-04_09h21.49.861,TEST_eye_tracker,2024.1.5,None,2025-09-04 09h22.00.081839 +0200,
13,C:\Users\id05278\Desktop\MLLM matteo\Task and screenshots\experiment-20250603T085947Z-1-001\experiment\responses_files\prompt_13.xlsx,C:\Users\id05278\Desktop\MLLM matteo\Task and screenshots\experiment-20250603T085947Z-1-001\experiment\responses_files\img_prompt_13.jpg,What is the size of the bowl in the image?,,,0.888,,,0,3,3,12,,,,,,,,,,,,,,,,,,,,,,,,,,,,,,,,,What is the size of the bowl in the image?,0.888,,,,,,,,,,,,,,,,,,,,,,,,,,348.3871167999969,348.4021059000006,348.4021059000006,349.2919185999999,349.2919185999999,349.661219900001,2,0.8383453999995254,space,0.3576591999953962,None,,,,,,,,,1,001,2025-09-04_09h21.49.861,TEST_eye_tracker,2024.1.5,None,2025-09-04 09h22.00.081839 +0200,
6,C:\Users\id05278\Desktop\MLLM matteo\Task and screenshots\experiment-20250603T085947Z-1-001\experiment\responses_files\prompt_6.xlsx,C:\Users\id05278\Desktop\MLLM matteo\Task and screenshots\experiment-20250603T085947Z-1-001\experiment\responses_files\img_prompt_6.jpg,Did the artist include a chicken in this piece?,6,6.2,"No, there is no chicken in this image. The image shows a street scene with cows. There is a white cow with a bell around its neck looking directly at the camera, and another cow in front of it seen from behind. There are also people in the background, but no chickens are visible in the photograph.",4,gpt-4v,0,4,4,5,0,0,0,1,365.00046440000006,,,,,,,,,,,,,,,,349.72678550000273,349.7369247000024,350.2258126000015,350.2258279000016,350.2602126999991,350.2602126999991,350.2602126999991,364.4945155000023,space,14.222085200002766,None,364.99261470000056,Did the artist include a chicken in this piece?,"No, there is no chicken in this image. The image shows a street scene with cows. There is a white cow with a bell around its neck looking directly at the camera, and another cow in front of it seen from behind. There are also people in the background, but no chickens are visible in the photograph.",365.00046440000006,365.99224310000136,365.9922574000011,366.02646729999833,380.55963979999797,space,14.512202400001115,None,380.75799990000087,380.7968910999989,380.7968910999989,380.7968910999989,380.7968910999989,386.1589348999987,386.1589348999987,388.1977160000024,space,2.018670400000701,None,4,1.6972529999984545,4,3.6664572000008775,5,5.334318499997607,,,,,,,,,,,,350.2602126999991,,,,,,,,1,001,2025-09-04_09h21.49.861,TEST_eye_tracker,2024.1.5,None,2025-09-04 09h22.00.081839 +0200,
6,C:\Users\id05278\Desktop\MLLM matteo\Task and screenshots\experiment-20250603T085947Z-1-001\experiment\responses_files\prompt_6.xlsx,C:\Users\id05278\Desktop\MLLM matteo\Task and screenshots\experiment-20250603T085947Z-1-001\experiment\responses_files\img_prompt_6.jpg,Did the artist include a chicken in this piece?,6,6.1,"No, the artist did not include a chicken in this piece. The image features two cows standing next to each other on a dirt road, with a man standing behind them. There are no chickens in the scene. The focus of the image is on the cows and the man, and it does not include any other animals.",5,LLaVA-RLHF-7b-v1.5-224,0,4,4,5,0,1,1,0,388.2252359999984,,,,,,,,,,,,,,,,,,,,,,,,,,,388.1982504999978,Did the artist include a chicken in this piece?,"No, the artist did not include a chicken in this piece. The image features two cows standing next to each other on a dirt road, with a man standing behind them. There are no chickens in the scene. The focus of the image is on the cows and the man, and it does not include any other animals.",388.2252359999984,389.22534650000307,389.22535939999943,389.258845700002,402.49299739999697,space,13.20700339999894,None,402.69374830000015,402.73177399999986,402.73177399999986,402.73177399999986,402.73177399999986,406.79201699999976,406.79201699999976,407.39788679999765,space,0.5857570000007399,None,3,1.5619624000028125,3,3.0641641999973217,5,4.034459900001821,,,,,,,,,,,,,,,,,,,,1,001,2025-09-04_09h21.49.861,TEST_eye_tracker,2024.1.5,None,2025-09-04 09h22.00.081839 +0200,
6,C:\Users\id05278\Desktop\MLLM matteo\Task and screenshots\experiment-20250603T085947Z-1-001\experiment\responses_files\prompt_6.xlsx,C:\Users\id05278\Desktop\MLLM matteo\Task and screenshots\experiment-20250603T085947Z-1-001\experiment\responses_files\img_prompt_6.jpg,Did the artist include a chicken in this piece?,,,0.888,,,0,4,4,5,,,,,,,,,,,,,,,,,,,,,,,,,,,,,,,,,Did the artist include a chicken in this piece?,0.888,,,,,,,,,,,,,,,,,,,,,,,,,,407.4581407000005,407.4729303999993,407.4729303999993,408.65882740000234,408.65882740000234,409.2612117000026,1,1.1334427999972831,space,0.5845996999996714,None,,,,,,,,,1,001,2025-09-04_09h21.49.861,TEST_eye_tracker,2024.1.5,None,2025-09-04 09h22.00.081839 +0200,
10,C:\Users\id05278\Desktop\MLLM matteo\Task and screenshots\experiment-20250603T085947Z-1-001\experiment\responses_files\prompt_10.xlsx,C:\Users\id05278\Desktop\MLLM matteo\Task and screenshots\experiment-20250603T085947Z-1-001\experiment\responses_files\img_prompt_10.jpg,What could be a reason the people in the image are playing Wii at work?,10,10.2,"It looks like the people in the image are enjoying a game on the Wii, which could be part of a team-building activity or a break to foster a positive work environment. Companies sometimes use gaming as a way to encourage collaboration, relieve stress, and improve employee relations. It's also possible that this is a special event or celebration, or that the company encourages short gaming breaks to boost creativity and productivity.",4.333333333333333,gpt-4v,0,5,5,9,0,0,0,1,429.6674439999988,,,,,,,,,,,,,,,,409.32437850000133,409.3354743000018,409.82548739999766,409.82550130000163,409.8603721999971,409.8603721999971,409.8603721999971,429.1283190000031,space,19.237542900002154,None,429.6594824999993,What could be a reason the people in the image are playing Wii at work?,"It looks like the people in the image are enjoying a game on the Wii, which could be part of a team-building activity or a break to foster a positive work environment. Companies sometimes use gaming as a way to encourage collaboration, relieve stress, and improve employee relations. It's also possible that this is a special event or celebration, or that the company encourages short gaming breaks to boost creativity and productivity.",429.6674439999988,430.6587849999996,430.6587986000013,430.69336459999613,453.79303410000284,space,23.076896600003238,None,454.0076687999972,454.0470045999973,454.0470045999973,454.0470045999973,454.0470045999973,465.29205640000146,465.29205640000146,466.0646984999985,space,0.7585286999965319,None,4,4.381639200000791,4,7.917478299998038,5,11.219228699999803,,,,,,,,,,,,,,,,,,,,1,001,2025-09-04_09h21.49.861,TEST_eye_tracker,2024.1.5,None,2025-09-04 09h22.00.081839 +0200,
10,C:\Users\id05278\Desktop\MLLM matteo\Task and screenshots\experiment-20250603T085947Z-1-001\experiment\responses_files\prompt_10.xlsx,C:\Users\id05278\Desktop\MLLM matteo\Task and screenshots\experiment-20250603T085947Z-1-001\experiment\responses_files\img_prompt_10.jpg,What could be a reason the people in the image are playing Wii at work?,10,10.1,"A possible reason the people in the image are playing Wii at work could be that they enjoy spending time together, engaging in fun activities, and fostering a sense of camaraderie. Wii games often involve physical movements, which can help relieve stress, promote teamwork, and enhance communication among players. By playing together, they share a common interest in a fun and interactive way, which can contribute to a positive work environment. Additionally, playing Wii at work might encourage employees to engage in more physical activity, which can lead to improved health and well-being.",5,fuyu-8b,0,5,5,9,0,1,1,0,466.09234650000144,,,,,,,,,,,,,,,,,,,,,,,,,,,466.0652639999971,What could be a reason the people in the image are playing Wii at work?,"A possible reason the people in the image are playing Wii at work could be that they enjoy spending time together, engaging in fun activities, and fostering a sense of camaraderie. Wii games often involve physical movements, which can help relieve stress, promote teamwork, and enhance communication among players. By playing together, they share a common interest in a fun and interactive way, which can contribute to a positive work environment. Additionally, playing Wii at work might encourage employees to engage in more physical activity, which can lead to improved health and well-being.",466.09234650000144,467.09230099999695,467.092313299996,467.1257082000011,515.426778699999,space,48.28448679999565,None,515.6424656000017,515.6820905999994,515.6820905999994,515.6820905999994,515.6820905999994,520.3254071999982,520.3254071999982,520.9981501000002,space,0.6367768000054639,None,4,2.347051899996586,4,3.782120700001542,5,4.616665299996384,,,,,,,,,,,,,,,,,,,,1,001,2025-09-04_09h21.49.861,TEST_eye_tracker,2024.1.5,None,2025-09-04 09h22.00.081839 +0200,
10,C:\Users\id05278\Desktop\MLLM matteo\Task and screenshots\experiment-20250603T085947Z-1-001\experiment\responses_files\prompt_10.xlsx,C:\Users\id05278\Desktop\MLLM matteo\Task and screenshots\experiment-20250603T085947Z-1-001\experiment\responses_files\img_prompt_10.jpg,What could be a reason the people in the image are playing Wii at work?,,,0.888,,,0,5,5,9,,,,,,,,,,,,,,,,,,,,,,,,,,,,,,,,,What could be a reason the people in the image are playing Wii at work?,0.888,,,,,,,,,,,,,,,,,,,,,,,,,,521.073542099999,521.0882660999996,521.0882660999996,523.359020099997,523.359020099997,524.0977675999966,1,2.219912900000054,space,0.7234376999986125,None,,,,,,,,,1,001,2025-09-04_09h21.49.861,TEST_eye_tracker,2024.1.5,None,2025-09-04 09h22.00.081839 +0200,
20,C:\Users\id05278\Desktop\MLLM matteo\Task and screenshots\experiment-20250603T085947Z-1-001\experiment\responses_files\prompt_20.xlsx,C:\Users\id05278\Desktop\MLLM matteo\Task and screenshots\experiment-20250603T085947Z-1-001\experiment\responses_files\img_prompt_20.jpg,What type of furniture can you see in this image?,20,20.2,"In this image, I can see a couch, a chair, and a refrigerator. The couch is brown, and the chair is black. The refrigerator is white, and it is placed in the kitchen area.",3.666666666666667,LLaVA-RLHF-7b-v1.5-224,0,6,6,19,0,0,0,1,546.4775064999994,,,,,,,,,,,,,,,,524.1611809000024,524.1721642999983,524.6595356999969,524.6595492999986,524.6995207,524.6995207,524.6995207,545.9610154999973,space,21.23894139999902,None,546.4684427000029,What type of furniture can you see in this image?,"In this image, I can see a couch, a chair, and a refrigerator. The couch is brown, and the chair is black. The refrigerator is white, and it is placed in the kitchen area.",546.4775064999994,547.4589721000011,547.4589850999982,547.4924307999972,558.8278840999992,space,11.30233109999972,None,559.026159699999,559.0652046000032,559.0652046000032,559.0652046000032,559.0652046000032,565.6924373000002,565.6924373000002,566.5652111000018,space,0.8453816999972332,None,3,1.1633292000042275,3,4.964698200004932,5,6.600987500001793,,,,,,,,,,,,524.6995207,,,,,,,,1,001,2025-09-04_09h21.49.861,TEST_eye_tracker,2024.1.5,None,2025-09-04 09h22.00.081839 +0200,
20,C:\Users\id05278\Desktop\MLLM matteo\Task and screenshots\experiment-20250603T085947Z-1-001\experiment\responses_files\prompt_20.xlsx,C:\Users\id05278\Desktop\MLLM matteo\Task and screenshots\experiment-20250603T085947Z-1-001\experiment\responses_files\img_prompt_20.jpg,What type of furniture can you see in this image?,20,20.1,"In the image, I can see a variety of furniture, including a couch, a chair, and a refrigerator. The couch is located in the living room, while the chair is positioned near the dining table. The refrigerator is situated in the kitchen area. Additionally, there is a TV in the living room, which adds to the cozy and functional setup of the space. The presence of these items indicates that the room is designed to accommodate both relaxation and dining activities, making it a versatile and comfortable living space.",2.333333333333333,LLaVA-RLHF-13b-v1.5-336,0,6,6,19,0,1,1,0,566.5923006000012,,,,,,,,,,,,,,,,,,,,,,,,,,,566.5659065,What type of furniture can you see in this image?,"In the image, I can see a variety of furniture, including a couch, a chair, and a refrigerator. The couch is located in the living room, while the chair is positioned near the dining table. The refrigerator is situated in the kitchen area. Additionally, there is a TV in the living room, which adds to the cozy and functional setup of the space. The presence of these items indicates that the room is designed to accommodate both relaxation and dining activities, making it a versatile and comfortable living space.",566.5923006000012,567.5923769000001,567.5923889999976,567.6269303000008,590.6272593999965,space,22.991497300004994,None,590.8390843000016,590.8777836000008,590.8777836000008,590.8777836000008,590.8777836000008,597.5923698999977,597.5923698999977,598.2651171999969,space,0.6349893000005977,None,4,1.3170281999991857,3,5.652634400001261,5,6.687949400002253,,,,,,,,,,,,,,,,,,,,1,001,2025-09-04_09h21.49.861,TEST_eye_tracker,2024.1.5,None,2025-09-04 09h22.00.081839 +0200,
20,C:\Users\id05278\Desktop\MLLM matteo\Task and screenshots\experiment-20250603T085947Z-1-001\experiment\responses_files\prompt_20.xlsx,C:\Users\id05278\Desktop\MLLM matteo\Task and screenshots\experiment-20250603T085947Z-1-001\experiment\responses_files\img_prompt_20.jpg,What type of furniture can you see in this image?,,,0.888,,,0,6,6,19,,,,,,,,,,,,,,,,,,,,,,,,,,,,,,,,,What type of furniture can you see in this image?,0.888,,,,,,,,,,,,,,,,,,,,,,,,,,598.3429047000027,598.3572623,598.3572623,600.1257651999986,600.1257651999986,600.428373499999,2,1.7162205999993603,space,0.27628850000473903,None,,,,,,,,,1,001,2025-09-04_09h21.49.861,TEST_eye_tracker,2024.1.5,None,2025-09-04 09h22.00.081839 +0200,
9,C:\Users\id05278\Desktop\MLLM matteo\Task and screenshots\experiment-20250603T085947Z-1-001\experiment\responses_files\prompt_9.xlsx,C:\Users\id05278\Desktop\MLLM matteo\Task and screenshots\experiment-20250603T085947Z-1-001\experiment\responses_files\img_prompt_9.jpg,Describe the overall appearance and atmosphere of the bedroom in the image.,9,9.2,"The bedroom in the image has a clean and minimalist appearance, featuring a large bed with white sheets and pillows, which gives it a fresh and inviting look. The room is well-lit, with a light on, creating a cozy atmosphere. The overall atmosphere of the bedroom is calm and relaxing, making it an ideal space for rest and rejuvenation.",4.333333333333333,Qwen-VL-Chat,0,7,7,8,0,0,0,1,618.8992035999981,,,,,,,,,,,,,,,,600.4922030000016,600.5025911999983,600.9924805999981,600.9924920999983,601.0324256000022,601.0324256000022,601.0324256000022,618.4278208999967,space,17.393475500000932,None,618.891020199997,Describe the overall appearance and atmosphere of the bedroom in the image.,"The bedroom in the image has a clean and minimalist appearance, featuring a large bed with white sheets and pillows, which gives it a fresh and inviting look. The room is well-lit, with a light on, creating a cozy atmosphere. The overall atmosphere of the bedroom is calm and relaxing, making it an ideal space for rest and rejuvenation.",618.8992035999981,619.8924388000014,619.8924501000001,619.9259856999997,641.6600214999999,space,21.71624999999767,None,641.8630663000004,641.9031218000018,641.9031218000018,641.9031218000018,641.9031218000018,649.3255959000016,649.3255959000016,650.0318620999969,space,0.6846115999942413,None,5,1.559497599999304,4,6.428675600000133,5,7.397561000005226,,,,,,,,,,,,,,,,,,,,1,001,2025-09-04_09h21.49.861,TEST_eye_tracker,2024.1.5,None,2025-09-04 09h22.00.081839 +0200,
9,C:\Users\id05278\Desktop\MLLM matteo\Task and screenshots\experiment-20250603T085947Z-1-001\experiment\responses_files\prompt_9.xlsx,C:\Users\id05278\Desktop\MLLM matteo\Task and screenshots\experiment-20250603T085947Z-1-001\experiment\responses_files\img_prompt_9.jpg,Describe the overall appearance and atmosphere of the bedroom in the image.,9,9.1,"The bedroom in the image has a modern and stylish appearance, featuring a large bed with white pillows and a white comforter. The room is dimly lit, creating a cozy and intimate atmosphere. The bed is positioned next to a wall, and there is a lamp on the nightstand, providing additional lighting in the room. The overall ambiance of the bedroom is inviting and comfortable, making it an ideal space for relaxation and rest.",2,llava1.5-13b,0,7,7,8,0,1,1,0,650.0590845999977,,,,,,,,,,,,,,,,,,,,,,,,,,,650.0324397000004,Describe the overall appearance and atmosphere of the bedroom in the image.,"The bedroom in the image has a modern and stylish appearance, featuring a large bed with white pillows and a white comforter. The room is dimly lit, creating a cozy and intimate atmosphere. The bed is positioned next to a wall, and there is a lamp on the nightstand, providing additional lighting in the room. The overall ambiance of the bedroom is inviting and comfortable, making it an ideal space for relaxation and rest.",650.0590845999977,651.0592140000008,651.0592281999998,651.0927807999979,667.2269842000023,space,16.1175035999986,None,667.4413848999975,667.4797051999994,667.4797051999994,667.4797051999994,667.4797051999994,671.2592103999996,671.2592103999996,671.532200900001,space,0.2467062000068836,None,5,0.9821248000007472,5,2.550053200000548,5,3.7519420000026003,,,,,,,,,,,,,,,,,,,,1,001,2025-09-04_09h21.49.861,TEST_eye_tracker,2024.1.5,None,2025-09-04 09h22.00.081839 +0200,
9,C:\Users\id05278\Desktop\MLLM matteo\Task and screenshots\experiment-20250603T085947Z-1-001\experiment\responses_files\prompt_9.xlsx,C:\Users\id05278\Desktop\MLLM matteo\Task and screenshots\experiment-20250603T085947Z-1-001\experiment\responses_files\img_prompt_9.jpg,Describe the overall appearance and atmosphere of the bedroom in the image.,,,0.888,,,0,7,7,8,,,,,,,,,,,,,,,,,,,,,,,,,,,,,,,,,Describe the overall appearance and atmosphere of the bedroom in the image.,0.888,,,,,,,,,,,,,,,,,,,,,,,,,,671.6141199999984,671.6292240999974,671.6292240999974,672.5256966000015,672.5256966000015,672.8616351000019,2,0.8447095000010449,space,0.30093050000141375,None,,,,,,,,,1,001,2025-09-04_09h21.49.861,TEST_eye_tracker,2024.1.5,None,2025-09-04 09h22.00.081839 +0200,
2,C:\Users\id05278\Desktop\MLLM matteo\Task and screenshots\experiment-20250603T085947Z-1-001\experiment\responses_files\prompt_2.xlsx,C:\Users\id05278\Desktop\MLLM matteo\Task and screenshots\experiment-20250603T085947Z-1-001\experiment\responses_files\img_prompt_2.jpg,Can you spot the purple umbrella near the green leaves? It appears to be left behind by someone.,2,2.1,"The image shows a street scene with traffic signs in the foreground, but there is no visible purple umbrella near any green leaves. It might not be included in the frame of this picture or it might be obscured from view.",1.666666666666667,gpt-4v,0,8,8,1,0,0,0,0,709.8828018999993,,,,,,,,,,,,,,,,672.9291959999973,672.939197599997,673.4264000999974,673.4264133999968,673.4627489999984,673.4627489999984,673.4627489999984,709.361212900003,space,35.86839499999769,None,709.8736456999977,Can you spot the purple umbrella near the green leaves? It appears to be left behind by someone.,"The image shows a street scene with traffic signs in the foreground, but there is no visible purple umbrella near any green leaves. It might not be included in the frame of this picture or it might be obscured from view.",709.8828018999993,710.8595010999998,710.8595177000025,710.8926250000004,731.8603388999982,space,20.957282399998803,None,732.0576806999961,732.0980971000026,732.0980971000026,732.0980971000026,732.0980971000026,736.2258480000019,736.2258480000019,736.4986559999961,space,0.264035000000149,None,5,1.7653118999951403,5,3.068198399996618,5,4.1027771000008215,,,,,,,,,,,,673.4627489999984,,,,,,,,1,001,2025-09-04_09h21.49.861,TEST_eye_tracker,2024.1.5,None,2025-09-04 09h22.00.081839 +0200,
2,C:\Users\id05278\Desktop\MLLM matteo\Task and screenshots\experiment-20250603T085947Z-1-001\experiment\responses_files\prompt_2.xlsx,C:\Users\id05278\Desktop\MLLM matteo\Task and screenshots\experiment-20250603T085947Z-1-001\experiment\responses_files\img_prompt_2.jpg,Can you spot the purple umbrella near the green leaves? It appears to be left behind by someone.,2,2.2,"Yes, there is a purple umbrella near the green leaves in the image. It appears to be left behind by someone, possibly a pedestrian who forgot it while walking by.",2.333333333333333,llava1.5-13b,0,8,8,1,0,1,1,1,736.5259131999992,,,,,,,,,,,,,,,,,,,,,,,,,,,736.499286600003,Can you spot the purple umbrella near the green leaves? It appears to be left behind by someone.,"Yes, there is a purple umbrella near the green leaves in the image. It appears to be left behind by someone, possibly a pedestrian who forgot it while walking by.",736.5259131999992,737.5261214999991,737.5261376999988,737.5607906000005,753.5953318000029,space,16.001404899994668,None,753.795913199996,753.8342963000032,753.8342963000032,753.8342963000032,753.8342963000032,757.9592135999992,757.9592135999992,767.3984538000004,space,9.411998700001277,None,1,1.9937696999986656,1,3.029660000000149,5,12.499338700006774,,,,,,,,,,,,,,,,,,,,1,001,2025-09-04_09h21.49.861,TEST_eye_tracker,2024.1.5,None,2025-09-04 09h22.00.081839 +0200,
2,C:\Users\id05278\Desktop\MLLM matteo\Task and screenshots\experiment-20250603T085947Z-1-001\experiment\responses_files\prompt_2.xlsx,C:\Users\id05278\Desktop\MLLM matteo\Task and screenshots\experiment-20250603T085947Z-1-001\experiment\responses_files\img_prompt_2.jpg,Can you spot the purple umbrella near the green leaves? It appears to be left behind by someone.,,,0.888,,,0,8,8,1,,,,,,,,,,,,,,,,,,,,,,,,,,,,,,,,,Can you spot the purple umbrella near the green leaves? It appears to be left behind by someone.,0.888,,,,,,,,,,,,,,,,,,,,,,,,,,767.4829535000026,767.4979515000014,767.4979515000014,769.4927762000007,769.4927762000007,769.761948899999,1,1.943114499998046,space,0.24477350000233855,None,,,,,,,,,1,001,2025-09-04_09h21.49.861,TEST_eye_tracker,2024.1.5,None,2025-09-04 09h22.00.081839 +0200,
26,C:\Users\id05278\Desktop\MLLM matteo\Task and screenshots\experiment-20250603T085947Z-1-001\experiment\responses_files\prompt_26.xlsx,C:\Users\id05278\Desktop\MLLM matteo\Task and screenshots\experiment-20250603T085947Z-1-001\experiment\responses_files\img_prompt_26.jpg,What is the purpose of the Om chanting mentioned in the image?,26,26.2,"The purpose of the Om chanting in the image is to promote positive transformation and meditation. The group of people is sitting in a circle, focusing on the chant, which is a deep mantra that helps them connect with their inner selves and achieve a state of mindfulness. This practice can lead to personal growth, relaxation, and stress reduction. The image also suggests that the Om chanting is being used as a tool for positive transformation, which can be achieved through meditation and mindfulness practices.",5,llava1.5-13b,0,9,9,25,0,0,0,1,801.8008734000032,,,,,,,,,,,,,,,,769.8299456000022,769.8405742000032,770.3266493999981,770.3266633000021,770.360951900002,770.360951900002,770.360951900002,801.2615097000016,space,30.8733818000037,None,801.7926462999967,What is the purpose of the Om chanting mentioned in the image?,"The purpose of the Om chanting in the image is to promote positive transformation and meditation. The group of people is sitting in a circle, focusing on the chant, which is a deep mantra that helps them connect with their inner selves and achieve a state of mindfulness. This practice can lead to personal growth, relaxation, and stress reduction. The image also suggests that the Om chanting is being used as a tool for positive transformation, which can be achieved through meditation and mindfulness practices.",801.8008734000032,802.7928515000021,802.7928629000016,802.8273926999973,838.5937274000025,space,35.75853210000059,None,838.7976272000014,838.8373279000007,838.8373279000007,838.8373279000007,838.8373279000007,844.1596006999971,844.1596006999971,844.5653600000005,space,0.3700693999999203,None,4,2.6251763999971445,5,4.360736700000416,5,5.296048600001086,,,,,,,,,,,,770.360951900002,,,,,,,,1,001,2025-09-04_09h21.49.861,TEST_eye_tracker,2024.1.5,None,2025-09-04 09h22.00.081839 +0200,
26,C:\Users\id05278\Desktop\MLLM matteo\Task and screenshots\experiment-20250603T085947Z-1-001\experiment\responses_files\prompt_26.xlsx,C:\Users\id05278\Desktop\MLLM matteo\Task and screenshots\experiment-20250603T085947Z-1-001\experiment\responses_files\img_prompt_26.jpg,What is the purpose of the Om chanting mentioned in the image?,26,26.1,The purpose of the Om chanting mentioned in the image is to meditate and chant deep mantra chants for positive transformation.,3,Qwen-VL-Chat,0,9,9,25,0,1,1,0,844.5927127999967,,,,,,,,,,,,,,,,,,,,,,,,,,,844.565934600003,What is the purpose of the Om chanting mentioned in the image?,The purpose of the Om chanting mentioned in the image is to meditate and chant deep mantra chants for positive transformation.,844.5927127999967,845.5929869999964,845.5930031000025,845.6264206999986,851.7949240000016,space,6.135144899999432,None,851.9889331000013,852.0281439999962,852.0281439999962,852.0281439999962,852.0281439999962,858.4931442000016,858.4931442000016,858.8320366999978,space,0.3250821000037831,None,5,3.701241700000537,4,5.436806700003217,5,6.438537800000631,,,,,,,,,,,,,,,,,,,,1,001,2025-09-04_09h21.49.861,TEST_eye_tracker,2024.1.5,None,2025-09-04 09h22.00.081839 +0200,
26,C:\Users\id05278\Desktop\MLLM matteo\Task and screenshots\experiment-20250603T085947Z-1-001\experiment\responses_files\prompt_26.xlsx,C:\Users\id05278\Desktop\MLLM matteo\Task and screenshots\experiment-20250603T085947Z-1-001\experiment\responses_files\img_prompt_26.jpg,What is the purpose of the Om chanting mentioned in the image?,,,0.888,,,0,9,9,25,,,,,,,,,,,,,,,,,,,,,,,,,,,,,,,,,What is the purpose of the Om chanting mentioned in the image?,0.888,,,,,,,,,,,,,,,,,,,,,,,,,,858.9188530999963,858.9337272999983,858.9337272999983,862.8262346999982,862.8262346999982,863.7966602000015,2,3.8403694000007818,space,0.9676295000026585,None,,,,,,,,,1,001,2025-09-04_09h21.49.861,TEST_eye_tracker,2024.1.5,None,2025-09-04 09h22.00.081839 +0200,
23,C:\Users\id05278\Desktop\MLLM matteo\Task and screenshots\experiment-20250603T085947Z-1-001\experiment\responses_files\prompt_23.xlsx,C:\Users\id05278\Desktop\MLLM matteo\Task and screenshots\experiment-20250603T085947Z-1-001\experiment\responses_files\img_prompt_23.jpg,What is the title and topic of the book mentioned in the image?,23,23.2,Title: Vehicle Noise and Vibration Refinement. Topic: Woodhead Publishing in Mechanical Engineering.,5,fuyu-8b,0,10,10,22,0,0,0,1,882.1451377999983,,,,,,,,,,,,,,,,863.8589065999986,863.8682457000032,864.3598981999967,864.3599098999985,864.3947124999977,864.3947124999977,864.3947124999977,881.828108200003,space,17.423193099995842,None,882.1369969000007,What is the title and topic of the book mentioned in the image?,Title: Vehicle Noise and Vibration Refinement. Topic: Woodhead Publishing in Mechanical Engineering.,882.1451377999983,883.1270890000014,883.1271007000032,883.160704599999,889.5938337999978,space,6.424970899999607,None,889.7992279999962,889.8390005999972,889.8390005999972,889.8390005999972,889.8390005999972,902.1262774999996,902.1262774999996,902.732150900003,space,0.5793303999962518,None,3,6.857473100004427,3,10.795202100001916,5,12.261639999996987,,,,,,,,,,,,,,,,,,,,1,001,2025-09-04_09h21.49.861,TEST_eye_tracker,2024.1.5,None,2025-09-04 09h22.00.081839 +0200,
23,C:\Users\id05278\Desktop\MLLM matteo\Task and screenshots\experiment-20250603T085947Z-1-001\experiment\responses_files\prompt_23.xlsx,C:\Users\id05278\Desktop\MLLM matteo\Task and screenshots\experiment-20250603T085947Z-1-001\experiment\responses_files\img_prompt_23.jpg,What is the title and topic of the book mentioned in the image?,23,23.1,"This page shows a diagram showing how vehicles use noise and vibration reduction systems to reduce their environmental impact. The diagram includes various components, such as vehicle body, engine, transmission, differentials, and wheels, that are used for noise and vibration reduction.",3,VisualGLM-6b,0,10,10,22,0,1,1,0,902.7596807000009,,,,,,,,,,,,,,,,,,,,,,,,,,,902.7327125000011,What is the title and topic of the book mentioned in the image?,"This page shows a diagram showing how vehicles use noise and vibration reduction systems to reduce their environmental impact. The diagram includes various components, such as vehicle body, engine, transmission, differentials, and wheels, that are used for noise and vibration reduction.",902.7596807000009,903.7597755000024,903.7597887000011,903.7930229999984,915.8605344000025,space,12.064985900004103,None,916.0587928000023,916.097920799999,916.097920799999,916.097920799999,916.097920799999,921.1930464999969,921.1930464999969,921.8990716999979,space,0.6812185000017053,None,1,2.7315689000024577,1,3.7665024000016274,5,5.068992600005004,,,,,,,,,,,,,,,,,,,,1,001,2025-09-04_09h21.49.861,TEST_eye_tracker,2024.1.5,None,2025-09-04 09h22.00.081839 +0200,
23,C:\Users\id05278\Desktop\MLLM matteo\Task and screenshots\experiment-20250603T085947Z-1-001\experiment\responses_files\prompt_23.xlsx,C:\Users\id05278\Desktop\MLLM matteo\Task and screenshots\experiment-20250603T085947Z-1-001\experiment\responses_files\img_prompt_23.jpg,What is the title and topic of the book mentioned in the image?,,,0.888,,,0,10,10,22,,,,,,,,,,,,,,,,,,,,,,,,,,,,,,,,,What is the title and topic of the book mentioned in the image?,0.888,,,,,,,,,,,,,,,,,,,,,,,,,,921.9797563999964,921.9941313000018,921.9941313000018,923.2261638999989,923.2261638999989,923.8956012999988,1,1.1796133000025293,space,0.6562449999983073,None,,,,,,,,,1,001,2025-09-04_09h21.49.861,TEST_eye_tracker,2024.1.5,None,2025-09-04 09h22.00.081839 +0200,
27,C:\Users\id05278\Desktop\MLLM matteo\Task and screenshots\experiment-20250603T085947Z-1-001\experiment\responses_files\prompt_27.xlsx,C:\Users\id05278\Desktop\MLLM matteo\Task and screenshots\experiment-20250603T085947Z-1-001\experiment\responses_files\img_prompt_27.jpg,What is the possible theme of this image?,27,27.1,"The possible theme of this image could be a casual meal, as it features two plates with different dishes on them. One plate contains a sandwich and fries while another has a salad and a side dish like rice or beans. These dishes are served in cups and bowls on white dining tables, which suggests that they might be part of an evening gathering or social event where people enjoy their meals together.",4.333333333333333,VisualGLM-6b,0,11,11,26,0,0,0,0,943.5276725000003,,,,,,,,,,,,,,,,923.9585359999983,923.9687709999998,924.4598235000012,924.4598388000013,924.494692399996,924.494692399996,924.494692399996,942.996303400003,space,18.492488699994283,None,943.5190316000007,What is the possible theme of this image?,"The possible theme of this image could be a casual meal, as it features two plates with different dishes on them. One plate contains a sandwich and fries while another has a salad and a side dish like rice or beans. These dishes are served in cups and bowls on white dining tables, which suggests that they might be part of an evening gathering or social event where people enjoy their meals together.",943.5276725000003,944.5268085999996,944.526836099998,944.5599281999966,962.8277914999999,space,18.258033199999772,None,963.0322731999986,963.0719255000004,963.0719255000004,963.0719255000004,963.0719255000004,967.2930041,967.2930041,970.1325677999994,space,2.8052899000031175,None,3,1.4242617999989307,2,2.5264738999976544,5,4.195112599998538,,,,,,,,,,,,,,,,,,,,1,001,2025-09-04_09h21.49.861,TEST_eye_tracker,2024.1.5,None,2025-09-04 09h22.00.081839 +0200,
27,C:\Users\id05278\Desktop\MLLM matteo\Task and screenshots\experiment-20250603T085947Z-1-001\experiment\responses_files\prompt_27.xlsx,C:\Users\id05278\Desktop\MLLM matteo\Task and screenshots\experiment-20250603T085947Z-1-001\experiment\responses_files\img_prompt_27.jpg,What is the possible theme of this image?,27,27.2,"The image appears to be centered around a meal at a restaurant, featuring what looks like a sandwich possibly with pulled pork, served with French fries and a side of coleslaw, accompanied by a small bowl of sauce. On the other plate, there seems to be a rice dish with vegetables and grilled chicken breast, served with slices of toasted bread. The drinks visible are likely soft drinks. The theme suggests a casual dining experience, possibly at an American-style restaurant or diner, with a focus on hearty, comfort food dishes.",3.666666666666667,gpt-4v,0,11,11,26,0,1,1,1,970.159573500001,,,,,,,,,,,,,,,,,,,,,,,,,,,970.1331073999972,What is the possible theme of this image?,"The image appears to be centered around a meal at a restaurant, featuring what looks like a sandwich possibly with pulled pork, served with French fries and a side of coleslaw, accompanied by a small bowl of sauce. On the other plate, there seems to be a rice dish with vegetables and grilled chicken breast, served with slices of toasted bread. The drinks visible are likely soft drinks. The theme suggests a casual dining experience, possibly at an American-style restaurant or diner, with a focus on hearty, comfort food dishes.",970.159573500001,971.1596961999967,971.1597096999976,971.194539899996,1007.7938966000002,space,36.57623240000248,None,1008.0031423999972,1008.0426828999989,1008.0426828999989,1008.0426828999989,1008.0426828999989,1012.4264398000014,1012.4264398000014,1013.3991566999975,space,0.9597356000012951,None,4,1.3229271999953198,5,2.88843249999627,5,4.356803799993941,,,,,,,,,,,,,,,,,,,,1,001,2025-09-04_09h21.49.861,TEST_eye_tracker,2024.1.5,None,2025-09-04 09h22.00.081839 +0200,
27,C:\Users\id05278\Desktop\MLLM matteo\Task and screenshots\experiment-20250603T085947Z-1-001\experiment\responses_files\prompt_27.xlsx,C:\Users\id05278\Desktop\MLLM matteo\Task and screenshots\experiment-20250603T085947Z-1-001\experiment\responses_files\img_prompt_27.jpg,What is the possible theme of this image?,,,0.888,,,0,11,11,26,,,,,,,,,,,,,,,,,,,,,,,,,,,,,,,,,What is the possible theme of this image?,0.888,,,,,,,,,,,,,,,,,,,,,,,,,,1013.4981140000018,1013.5127515999993,1013.5127515999993,1015.0597782999976,1015.0597782999976,1015.5290871999969,2,1.4950908000027994,space,0.46268920000147773,None,,,,,,,,,1,001,2025-09-04_09h21.49.861,TEST_eye_tracker,2024.1.5,None,2025-09-04 09h22.00.081839 +0200,
8,C:\Users\id05278\Desktop\MLLM matteo\Task and screenshots\experiment-20250603T085947Z-1-001\experiment\responses_files\prompt_8.xlsx,C:\Users\id05278\Desktop\MLLM matteo\Task and screenshots\experiment-20250603T085947Z-1-001\experiment\responses_files\img_prompt_8.jpg,What are the prominent objects in the image?,8,8.1,"The prominent objects in the image are a train and a train station. The train is traveling down the tracks, and the train station is situated next to the tracks.",2,LLaVA-RLHF-7b-v1.5-224,0,12,12,7,0,0,0,0,1039.7977283,,,,,,,,,,,,,,,,1015.5985712999973,1015.6077357000031,1016.0935660999967,1016.093578400003,1016.1293930000029,1016.1293930000029,1016.1293930000029,1039.3953064000016,space,23.24131550000311,None,1039.7888117999973,What are the prominent objects in the image?,"The prominent objects in the image are a train and a train station. The train is traveling down the tracks, and the train station is situated next to the tracks.",1039.7977283,1040.7937595999974,1040.7937719999973,1040.8263943999991,1054.093964599997,space,13.248564200002875,None,1054.2901745999989,1054.3290253000014,1054.3290253000014,1054.3290253000014,1054.3290253000014,1060.3597894999984,1060.3597894999984,1061.4328154000032,space,1.0505088999998407,None,5,1.3998599000042304,4,4.970080099999905,5,6.004176499998721,,,,,,,,,,,,1016.1293930000029,,,,,,,,1,001,2025-09-04_09h21.49.861,TEST_eye_tracker,2024.1.5,None,2025-09-04 09h22.00.081839 +0200,
8,C:\Users\id05278\Desktop\MLLM matteo\Task and screenshots\experiment-20250603T085947Z-1-001\experiment\responses_files\prompt_8.xlsx,C:\Users\id05278\Desktop\MLLM matteo\Task and screenshots\experiment-20250603T085947Z-1-001\experiment\responses_files\img_prompt_8.jpg,What are the prominent objects in the image?,8,8.2,"The prominent objects in the image include a train, a station platform, and a train station.",4,fuyu-8b,0,12,12,7,0,1,1,1,1061.459716999998,,,,,,,,,,,,,,,,,,,,,,,,,,,1061.4333554999976,What are the prominent objects in the image?,"The prominent objects in the image include a train, a station platform, and a train station.",1061.459716999998,1062.4599142000006,1062.4599252999978,1062.4932240999988,1073.4938145999986,space,10.996711100000539,None,1073.6894698999968,1073.7287836999967,1073.7287836999967,1073.7287836999967,1073.7287836999967,1078.0263653000002,1078.0263653000002,1078.770552199996,space,0.7115040000062436,None,5,1.5675991000025533,4,3.2365070000014384,5,4.271287700001267,,,,,,,,,,,,,,,,,,,,1,001,2025-09-04_09h21.49.861,TEST_eye_tracker,2024.1.5,None,2025-09-04 09h22.00.081839 +0200,
8,C:\Users\id05278\Desktop\MLLM matteo\Task and screenshots\experiment-20250603T085947Z-1-001\experiment\responses_files\prompt_8.xlsx,C:\Users\id05278\Desktop\MLLM matteo\Task and screenshots\experiment-20250603T085947Z-1-001\experiment\responses_files\img_prompt_8.jpg,What are the prominent objects in the image?,,,0.888,,,0,12,12,7,,,,,,,,,,,,,,,,,,,,,,,,,,,,,,,,,What are the prominent objects in the image?,0.888,,,,,,,,,,,,,,,,,,,,,,,,,,1078.874973099999,1078.8903894000032,1078.8903894000032,1080.8267013000004,1080.8267013000004,1085.0626479999992,2,1.8854002000007313,space,4.207927700001164,None,,,,,,,,,1,001,2025-09-04_09h21.49.861,TEST_eye_tracker,2024.1.5,None,2025-09-04 09h22.00.081839 +0200,
25,C:\Users\id05278\Desktop\MLLM matteo\Task and screenshots\experiment-20250603T085947Z-1-001\experiment\responses_files\prompt_25.xlsx,C:\Users\id05278\Desktop\MLLM matteo\Task and screenshots\experiment-20250603T085947Z-1-001\experiment\responses_files\img_prompt_25.jpg,Could you give a blow-by-blow description of the image?,25,25.1,"The image shows a meal arrangement on a patterned textile surface. At the center is a white, round plate that contains an assortment of food items. There's a can of Fanta with an orange flavor, which seems to be the drink of choice. The food items include what appears to be pasta shells, neatly arranged on one side of the plate, and orange wedges with some of the peel still attached, placed on the opposite side. Additionally, there are orange-colored crackers, contributing to the color theme, and a whole, unpeeled carrot lying beside the other items on the plate. The background textile has a floral pattern with a mix of vibrant colors, adding a decorative backdrop to the meal presentation.",3,gpt-4v,0,13,13,24,0,0,0,0,1117.5899377000023,,,,,,,,,,,,,,,,1085.129526800003,1085.1390289999981,1085.6269430999964,1085.6269565999974,1085.663002100002,1085.663002100002,1085.663002100002,1117.0304106999974,space,31.3636903000006,None,1117.5817601000017,Could you give a blow-by-blow description of the image?,"The image shows a meal arrangement on a patterned textile surface. At the center is a white, round plate that contains an assortment of food items. There's a can of Fanta with an orange flavor, which seems to be the drink of choice. The food items include what appears to be pasta shells, neatly arranged on one side of the plate, and orange wedges with some of the peel still attached, placed on the opposite side. Additionally, there are orange-colored crackers, contributing to the color theme, and a whole, unpeeled carrot lying beside the other items on the plate. The background textile has a floral pattern with a mix of vibrant colors, adding a decorative backdrop to the meal presentation.",1117.5899377000023,1118.5932337999984,1118.5932461999982,1118.6270115000007,1160.3276908999978,space,41.687288299996,None,1160.5368132000003,1160.5754018000007,1160.5754018000007,1160.5754018000007,1160.5754018000007,1163.9598876000018,1163.9598876000018,1164.499450299998,space,0.5076792999971076,None,5,1.7205677000019932,5,2.622826899998472,5,3.3578754999980447,,,,,,,,,,,,1085.663002100002,,,,,,,,1,001,2025-09-04_09h21.49.861,TEST_eye_tracker,2024.1.5,None,2025-09-04 09h22.00.081839 +0200,
25,C:\Users\id05278\Desktop\MLLM matteo\Task and screenshots\experiment-20250603T085947Z-1-001\experiment\responses_files\prompt_25.xlsx,C:\Users\id05278\Desktop\MLLM matteo\Task and screenshots\experiment-20250603T085947Z-1-001\experiment\responses_files\img_prompt_25.jpg,Could you give a blow-by-blow description of the image?,25,25.2,"The image features a dining table with a plate of food, including a variety of snacks and a can of soda. The plate is placed on a table with a colorful cloth, adding a touch of elegance to the scene. There are several carrots scattered across the plate, with some of them placed closer to the edge and others in the middle. Additionally, a few oranges are also present on the plate, adding a pop of color to the arrangement. The can of soda is positioned next to the plate, ready to be enjoyed alongside the snacks. The overall scene is a casual and inviting dining experience, with a mix of healthy and indulgent food options.",4.333333333333333,LLaVA-RLHF-7b-v1.5-224,0,13,13,24,0,1,1,1,1164.5268167999966,,,,,,,,,,,,,,,,,,,,,,,,,,,1164.500037699996,Could you give a blow-by-blow description of the image?,"The image features a dining table with a plate of food, including a variety of snacks and a can of soda. The plate is placed on a table with a colorful cloth, adding a touch of elegance to the scene. There are several carrots scattered across the plate, with some of them placed closer to the edge and others in the middle. Additionally, a few oranges are also present on the plate, adding a pop of color to the arrangement. The can of soda is positioned next to the plate, ready to be enjoyed alongside the snacks. The overall scene is a casual and inviting dining experience, with a mix of healthy and indulgent food options.",1164.5268167999966,1165.5271579999971,1165.5271708,1165.560046300001,1194.3610450999986,space,28.78612439999415,None,1194.5686515999987,1194.6076098999984,1194.6076098999984,1194.6076098999984,1194.6076098999984,1201.7598943999983,1201.7598943999983,1204.1335401999968,space,2.3385880999994697,None,2,2.923542800002906,2,6.123436500005482,5,7.12626679999812,,,,,,,,,,,,,,,,,,,,1,001,2025-09-04_09h21.49.861,TEST_eye_tracker,2024.1.5,None,2025-09-04 09h22.00.081839 +0200,
25,C:\Users\id05278\Desktop\MLLM matteo\Task and screenshots\experiment-20250603T085947Z-1-001\experiment\responses_files\prompt_25.xlsx,C:\Users\id05278\Desktop\MLLM matteo\Task and screenshots\experiment-20250603T085947Z-1-001\experiment\responses_files\img_prompt_25.jpg,Could you give a blow-by-blow description of the image?,,,0.888,,,0,13,13,24,,,,,,,,,,,,,,,,,,,,,,,,,,,,,,,,,Could you give a blow-by-blow description of the image?,0.888,,,,,,,,,,,,,,,,,,,,,,,,,,1204.2283272999994,1204.2432199999967,1204.2432199999967,1205.7939858000027,1205.7939858000027,1206.8623503999988,1,1.499047099998279,space,1.0481884000037098,None,,,,,,,,,1,001,2025-09-04_09h21.49.861,TEST_eye_tracker,2024.1.5,None,2025-09-04 09h22.00.081839 +0200,
21,C:\Users\id05278\Desktop\MLLM matteo\Task and screenshots\experiment-20250603T085947Z-1-001\experiment\responses_files\prompt_21.xlsx,C:\Users\id05278\Desktop\MLLM matteo\Task and screenshots\experiment-20250603T085947Z-1-001\experiment\responses_files\img_prompt_21.jpg,Can you find the flock of birds flying over the cloudy sky?,21,21.1,"There are no birds or clouds visible in the photo you provided. The image shows a toy figure of a surfer on a surfboard against a clear blue sky. If you're looking for a photo with birds and clouds, you may want to try a different image or specify another scene you'd like to see.",1.333333333333333,gpt-4v,0,14,14,20,0,0,0,0,1231.4050337000008,,,,,,,,,,,,,,,,1206.9295950000014,1206.940932700003,1207.4272490000003,1207.427261500001,1207.4616873999985,1207.4616873999985,1207.4616873999985,1231.0287287999963,space,23.548564899996563,None,1231.3968453999987,Can you find the flock of birds flying over the cloudy sky?,"There are no birds or clouds visible in the photo you provided. The image shows a toy figure of a surfer on a surfboard against a clear blue sky. If you're looking for a photo with birds and clouds, you may want to try a different image or specify another scene you'd like to see.",1231.4050337000008,1232.393420100001,1232.393431700002,1232.4266925999982,1246.8288036000013,space,14.383594400002039,None,1247.0365740999987,1247.075426000003,1247.075426000003,1247.075426000003,1247.075426000003,1255.4271260000023,1255.4271260000023,1256.0657991999979,space,0.6071194000032847,None,3,3.153364900004817,4,5.957436400000006,5,8.327024400001392,,,,,,,,,,,,1207.4616873999985,,,,,,,,1,001,2025-09-04_09h21.49.861,TEST_eye_tracker,2024.1.5,None,2025-09-04 09h22.00.081839 +0200,
21,C:\Users\id05278\Desktop\MLLM matteo\Task and screenshots\experiment-20250603T085947Z-1-001\experiment\responses_files\prompt_21.xlsx,C:\Users\id05278\Desktop\MLLM matteo\Task and screenshots\experiment-20250603T085947Z-1-001\experiment\responses_files\img_prompt_21.jpg,Can you find the flock of birds flying over the cloudy sky?,21,21.2,"No, there are no birds in the image. The image features a man on a surfboard, which is placed on a pole or a stick, and he is riding it in the air. The sky in the image is blue and cloudy, but there are no birds visible. The focus of the image is on the man and his surfboard, showcasing his skill and balance as he performs his trick. The presence of a surfboard and a man riding it on a stick or pole suggests that this could be a creative or artistic representation of surfing, or perhaps a unique form of entertainment or advertisement. The image captures the essence of surfing, highlighting the excitement and thrill that comes with the sport, as well as the skill and agility required to perform such a feat.",2.333333333333333,LLaVA-RLHF-13b-v1.5-336,0,14,14,20,0,1,1,1,1256.094074200002,,,,,,,,,,,,,,,,,,,,,,,,,,,1256.066348399996,Can you find the flock of birds flying over the cloudy sky?,"No, there are no birds in the image. The image features a man on a surfboard, which is placed on a pole or a stick, and he is riding it in the air. The sky in the image is blue and cloudy, but there are no birds visible. The focus of the image is on the man and his surfboard, showcasing his skill and balance as he performs his trick. The presence of a surfboard and a man riding it on a stick or pole suggests that this could be a creative or artistic representation of surfing, or perhaps a unique form of entertainment or advertisement. The image captures the essence of surfing, highlighting the excitement and thrill that comes with the sport, as well as the skill and agility required to perform such a feat.",1256.094074200002,1257.0947597999984,1257.0947921999978,1257.1283945000032,1290.4286410999994,space,33.274278400000185,None,1290.648215299996,1290.687133200001,1290.687133200001,1290.687133200001,1290.687133200001,1293.8604271000004,1293.8604271000004,1294.2346756999978,space,0.3579488000032143,None,4,1.1753800000005867,4,2.2119612000024063,5,3.1466166999962297,,,,,,,,,,,,,,,,,,,,1,001,2025-09-04_09h21.49.861,TEST_eye_tracker,2024.1.5,None,2025-09-04 09h22.00.081839 +0200,
21,C:\Users\id05278\Desktop\MLLM matteo\Task and screenshots\experiment-20250603T085947Z-1-001\experiment\responses_files\prompt_21.xlsx,C:\Users\id05278\Desktop\MLLM matteo\Task and screenshots\experiment-20250603T085947Z-1-001\experiment\responses_files\img_prompt_21.jpg,Can you find the flock of birds flying over the cloudy sky?,,,0.888,,,0,14,14,20,,,,,,,,,,,,,,,,,,,,,,,,,,,,,,,,,Can you find the flock of birds flying over the cloudy sky?,0.888,,,,,,,,,,,,,,,,,,,,,,,,,,1294.3464028000017,1294.3621902000014,1294.3621902000014,1295.4935474000013,1295.4935474000013,1296.0970233999979,2,1.0810167000017827,space,0.5978852999978699,None,,,,,,,,,1,001,2025-09-04_09h21.49.861,TEST_eye_tracker,2024.1.5,None,2025-09-04 09h22.00.081839 +0200,
3,C:\Users\id05278\Desktop\MLLM matteo\Task and screenshots\experiment-20250603T085947Z-1-001\experiment\responses_files\prompt_3.xlsx,C:\Users\id05278\Desktop\MLLM matteo\Task and screenshots\experiment-20250603T085947Z-1-001\experiment\responses_files\img_prompt_3.jpg,What is the quote on the image suggesting?,3,3.2,"The quote on the image, "Peace, Poetry, and Power," suggests that the person who created the image values peace, poetry, and power in their life. It could be a personal mantra or a statement expressing their beliefs and aspirations.",2.666666666666667,Qwen-VL-Chat,0,15,15,2,0,0,0,1,1362.0995288999984,,,,,,,,,,,,,,,,1296.1640929999994,1296.1732747999995,1296.6606317999976,1296.6606439000025,1296.6950060000017,1296.6950060000017,1296.6950060000017,1361.7957469999965,space,65.06785530000343,None,1362.0906078999978,What is the quote on the image suggesting?,"The quote on the image, "Peace, Poetry, and Power," suggests that the person who created the image values peace, poetry, and power in their life. It could be a personal mantra or a statement expressing their beliefs and aspirations.",1362.0995288999984,1363.0937067999985,1363.0937193999998,1363.1270081999974,1371.5612783999968,space,8.402756399998907,None,1371.7584101999964,1371.7987334999998,1371.7987334999998,1371.7987334999998,1371.7987334999998,1376.326949299997,1376.326949299997,1376.999859399999,space,0.6349952000018675,None,1,1.4652829999977257,1,2.7341568999981973,5,4.506655599994701,,,,,,,,,,,,1296.6950060000017,,,,,,,,1,001,2025-09-04_09h21.49.861,TEST_eye_tracker,2024.1.5,None,2025-09-04 09h22.00.081839 +0200,
3,C:\Users\id05278\Desktop\MLLM matteo\Task and screenshots\experiment-20250603T085947Z-1-001\experiment\responses_files\prompt_3.xlsx,C:\Users\id05278\Desktop\MLLM matteo\Task and screenshots\experiment-20250603T085947Z-1-001\experiment\responses_files\img_prompt_3.jpg,What is the quote on the image suggesting?,3,3.1,"The quote on the image suggests that peace, poetry, and power are important aspects of life. It encourages people to appreciate these qualities and strive to incorporate them into their daily lives. The image features a clock with a rose and a quote, which can be interpreted as a reminder to find balance between the passage of time and the beauty of life. The rose symbolizes love and appreciation, while the clock represents the importance of time and its value in our lives. The combination of these elements in the image serves as a reminder to cherish the moments and make the most of our time on earth.",5,llava1.5-13b,0,15,15,2,0,1,1,0,1377.0269017000028,,,,,,,,,,,,,,,,,,,,,,,,,,,1377.0004095999975,What is the quote on the image suggesting?,"The quote on the image suggests that peace, poetry, and power are important aspects of life. It encourages people to appreciate these qualities and strive to incorporate them into their daily lives. The image features a clock with a rose and a quote, which can be interpreted as a reminder to find balance between the passage of time and the beauty of life. The rose symbolizes love and appreciation, while the clock represents the importance of time and its value in our lives. The combination of these elements in the image serves as a reminder to cherish the moments and make the most of our time on earth.",1377.0269017000028,1378.0270565000028,1378.0270707000018,1378.0605550999971,1427.3948128999982,space,49.30945629999769,None,1427.5998448000028,1427.6392532000027,1427.6392532000027,1427.6392532000027,1427.6392532000027,1430.9273315999963,1430.9273315999963,1432.532904599997,space,1.5872378999993089,None,1,1.223780500004068,1,2.1266682999994373,5,3.2612647999994806,,,,,,,,,,,,,,,,,,,,1,001,2025-09-04_09h21.49.861,TEST_eye_tracker,2024.1.5,None,2025-09-04 09h22.00.081839 +0200,
3,C:\Users\id05278\Desktop\MLLM matteo\Task and screenshots\experiment-20250603T085947Z-1-001\experiment\responses_files\prompt_3.xlsx,C:\Users\id05278\Desktop\MLLM matteo\Task and screenshots\experiment-20250603T085947Z-1-001\experiment\responses_files\img_prompt_3.jpg,What is the quote on the image suggesting?,,,0.888,,,0,15,15,2,,,,,,,,,,,,,,,,,,,,,,,,,,,,,,,,,What is the quote on the image suggesting?,0.888,,,,,,,,,,,,,,,,,,,,,,,,,,1432.6323579000018,1432.6472183000005,1432.6472183000005,1433.5270816999982,1433.5270816999982,1434.0628845000028,2,0.8277241000032518,space,0.5153911000015796,None,,,,,,,,,1,001,2025-09-04_09h21.49.861,TEST_eye_tracker,2024.1.5,None,2025-09-04 09h22.00.081839 +0200,
18,C:\Users\id05278\Desktop\MLLM matteo\Task and screenshots\experiment-20250603T085947Z-1-001\experiment\responses_files\prompt_18.xlsx,C:\Users\id05278\Desktop\MLLM matteo\Task and screenshots\experiment-20250603T085947Z-1-001\experiment\responses_files\img_prompt_18.jpg,What time does the clock on the building show?,18,18.1,The clock on the building shows approximately 3:00.,4,gpt-4v,0,16,16,17,0,0,0,0,1456.7165241999974,,,,,,,,,,,,,,,,1434.137989499999,1434.147911,1434.6605213000003,1434.6605373999992,1434.6952351,1434.6952351,1434.6952351,1456.2624864999962,space,21.55547359999764,None,1456.708362700003,What time does the clock on the building show?,The clock on the building shows approximately 3:00.,1456.7165241999974,1457.6938968000031,1457.6939092999964,1457.7282752000028,1462.6280030999988,space,4.866477600000508,None,1462.8312645999977,1462.8701375000019,1462.8701375000019,1462.8701375000019,1462.8701375000019,1468.2605755999975,1468.2605755999975,1469.8662773999968,space,1.5892859000014141,None,4,1.3589806999952998,4,4.427892499996233,5,5.363129100005608,,,,,,,,,,,,,,,,,,,,1,001,2025-09-04_09h21.49.861,TEST_eye_tracker,2024.1.5,None,2025-09-04 09h22.00.081839 +0200,
18,C:\Users\id05278\Desktop\MLLM matteo\Task and screenshots\experiment-20250603T085947Z-1-001\experiment\responses_files\prompt_18.xlsx,C:\Users\id05278\Desktop\MLLM matteo\Task and screenshots\experiment-20250603T085947Z-1-001\experiment\responses_files\img_prompt_18.jpg,What time does the clock on the building show?,18,18.2,The clock on the building shows 12:30.,4.666666666666667,Qwen-VL-Chat,0,16,16,17,0,1,1,1,1469.893666099997,,,,,,,,,,,,,,,,,,,,,,,,,,,1469.8668604999984,What time does the clock on the building show?,The clock on the building shows 12:30.,1469.893666099997,1470.8938573999985,1470.8938716999983,1470.9271202000018,1477.7945811999962,space,6.859102199996414,None,1477.9886267999973,1478.0271536,1478.0271536,1478.0271536,1478.0271536,1483.4271864999973,1483.4271864999973,1490.300690199998,space,6.862600000000384,None,1,2.1690142000006745,1,3.9372483999977703,3,10.040738100004091,,,,,,,,,,,,,,,,,,,,1,001,2025-09-04_09h21.49.861,TEST_eye_tracker,2024.1.5,None,2025-09-04 09h22.00.081839 +0200,
18,C:\Users\id05278\Desktop\MLLM matteo\Task and screenshots\experiment-20250603T085947Z-1-001\experiment\responses_files\prompt_18.xlsx,C:\Users\id05278\Desktop\MLLM matteo\Task and screenshots\experiment-20250603T085947Z-1-001\experiment\responses_files\img_prompt_18.jpg,What time does the clock on the building show?,,,0.888,,,0,16,16,17,,,,,,,,,,,,,,,,,,,,,,,,,,,,,,,,,What time does the clock on the building show?,0.888,,,,,,,,,,,,,,,,,,,,,,,,,,1490.4171736999997,1490.432446400002,1490.432446400002,1491.894008299998,1491.894008299998,1493.5961336999972,1,1.4103298999980325,space,1.6841224000017974,None,,,,,,,,,1,001,2025-09-04_09h21.49.861,TEST_eye_tracker,2024.1.5,None,2025-09-04 09h22.00.081839 +0200,
29,C:\Users\id05278\Desktop\MLLM matteo\Task and screenshots\experiment-20250603T085947Z-1-001\experiment\responses_files\prompt_29.xlsx,C:\Users\id05278\Desktop\MLLM matteo\Task and screenshots\experiment-20250603T085947Z-1-001\experiment\responses_files\img_prompt_29.jpg,What is the title of the book or study mentioned in the image?,29,29.1,Reaching for Home,5,fuyu-8b,0,17,17,28,0,0,0,0,1501.0753609000021,,,,,,,,,,,,,,,,1493.6631376000005,1493.6722205999977,1494.161190400002,1494.1612050999975,1494.1956522999972,1494.1956522999972,1494.1956522999972,1500.5959233999965,space,6.391223899998295,None,1501.0668557000026,What is the title of the book or study mentioned in the image?,Reaching for Home,1501.0753609000021,1502.0606133999972,1502.0606263000009,1502.0938287999961,1510.0611457999985,space,7.940461799997138,None,1510.255509100003,1510.2940592000014,1510.2940592000014,1510.2940592000014,1510.2940592000014,1515.7936670999989,1515.7936670999989,1516.0665181000004,space,0.2642298999999184,None,4,3.5689013000010164,4,4.504271700003301,5,5.472811799998453,,,,,,,,,,,,1494.1956522999972,,,,,,,,1,001,2025-09-04_09h21.49.861,TEST_eye_tracker,2024.1.5,None,2025-09-04 09h22.00.081839 +0200,
29,C:\Users\id05278\Desktop\MLLM matteo\Task and screenshots\experiment-20250603T085947Z-1-001\experiment\responses_files\prompt_29.xlsx,C:\Users\id05278\Desktop\MLLM matteo\Task and screenshots\experiment-20250603T085947Z-1-001\experiment\responses_files\img_prompt_29.jpg,What is the title of the book or study mentioned in the image?,29,29.2,Reaching for Home: Global Learning on Family Reintegration in Low and Lower-Middle Income Countries,2.666666666666667,llava1.5-13b,0,17,17,28,0,1,1,1,1516.0936106000008,,,,,,,,,,,,,,,,,,,,,,,,,,,1516.0672204000002,What is the title of the book or study mentioned in the image?,Reaching for Home: Global Learning on Family Reintegration in Low and Lower-Middle Income Countries,1516.0936106000008,1517.0939639999997,1517.0939819999985,1517.1283791000023,1523.061413299998,space,5.922298700003012,None,1523.257663700002,1523.2968362999964,1523.2968362999964,1523.2968362999964,1523.2968362999964,1525.627362500003,1525.627362500003,1526.4335352999988,space,0.7917598999993061,None,5,0.8996379000018351,5,1.569255800000974,5,2.3047516000006,,,,,,,,,,,,,,,,,,,,1,001,2025-09-04_09h21.49.861,TEST_eye_tracker,2024.1.5,None,2025-09-04 09h22.00.081839 +0200,
29,C:\Users\id05278\Desktop\MLLM matteo\Task and screenshots\experiment-20250603T085947Z-1-001\experiment\responses_files\prompt_29.xlsx,C:\Users\id05278\Desktop\MLLM matteo\Task and screenshots\experiment-20250603T085947Z-1-001\experiment\responses_files\img_prompt_29.jpg,What is the title of the book or study mentioned in the image?,,,0.888,,,0,17,17,28,,,,,,,,,,,,,,,,,,,,,,,,,,,,,,,,,What is the title of the book or study mentioned in the image?,0.888,,,,,,,,,,,,,,,,,,,,,,,,,,1526.5509422000032,1526.5657871000003,1526.5657871000003,1527.6275326000032,1527.6275326000032,1528.262856399997,2,1.0097440000026836,space,0.615102100004151,None,,,,,,,,,1,001,2025-09-04_09h21.49.861,TEST_eye_tracker,2024.1.5,None,2025-09-04 09h22.00.081839 +0200,
7,C:\Users\id05278\Desktop\MLLM matteo\Task and screenshots\experiment-20250603T085947Z-1-001\experiment\responses_files\prompt_7.xlsx,C:\Users\id05278\Desktop\MLLM matteo\Task and screenshots\experiment-20250603T085947Z-1-001\experiment\responses_files\img_prompt_7.jpg,Who has written the quote in the image?,7,7.1,Jignesh Jain,5,fuyu-8b,0,18,18,6,0,0,0,0,1565.6299502999973,,,,,,,,,,,,,,,,1528.329009000001,1528.3382777000006,1528.8278291000024,1528.8278408999977,1528.8623080999969,1528.8623080999969,1528.8623080999969,1565.3294026000003,space,36.43639839999378,None,1565.6218760999982,Who has written the quote in the image?,Jignesh Jain,1565.6299502999973,1566.6274325999984,1566.6274661999996,1566.6605772999974,1572.761416399997,space,6.085618999997678,None,1572.9646607000032,1573.004461800003,1573.004461800003,1573.004461800003,1573.004461800003,1575.6606723000004,1575.6606723000004,1577.4383498000025,space,1.7500342999992426,None,5,1.1253389999983483,5,1.72862759999407,5,2.6295462000052794,,,,,,,,,,,,1528.8623080999969,,,,,,,,1,001,2025-09-04_09h21.49.861,TEST_eye_tracker,2024.1.5,None,2025-09-04 09h22.00.081839 +0200,
7,C:\Users\id05278\Desktop\MLLM matteo\Task and screenshots\experiment-20250603T085947Z-1-001\experiment\responses_files\prompt_7.xlsx,C:\Users\id05278\Desktop\MLLM matteo\Task and screenshots\experiment-20250603T085947Z-1-001\experiment\responses_files\img_prompt_7.jpg,Who has written the quote in the image?,7,7.2,"The image shows two people holding hands, one person's hand on top of another. They are smiling and seem to be at peace with each other. This is a beautiful moment that depicts love between two individuals who have been together for some time or even forever.",2.333333333333333,VisualGLM-6b,0,18,18,6,0,1,1,1,1577.4606910000002,,,,,,,,,,,,,,,,,,,,,,,,,,,1577.4389104000002,Who has written the quote in the image?,"The image shows two people holding hands, one person's hand on top of another. They are smiling and seem to be at peace with each other. This is a beautiful moment that depicts love between two individuals who have been together for some time or even forever.",1577.4606910000002,1578.4607551000008,1578.4607751000003,1578.494136399997,1594.7949771999993,space,16.292597599996952,None,1595.004485999998,1595.0441441000003,1595.0441441000003,1595.0441441000003,1595.0441441000003,1601.2940151000003,1601.2940151000003,1603.233554999999,space,1.9161777999979677,None,2,2.986066199999186,1,4.654747300002782,5,6.2238486999995075,,,,,,,,,,,,,,,,,,,,1,001,2025-09-04_09h21.49.861,TEST_eye_tracker,2024.1.5,None,2025-09-04 09h22.00.081839 +0200,
7,C:\Users\id05278\Desktop\MLLM matteo\Task and screenshots\experiment-20250603T085947Z-1-001\experiment\responses_files\prompt_7.xlsx,C:\Users\id05278\Desktop\MLLM matteo\Task and screenshots\experiment-20250603T085947Z-1-001\experiment\responses_files\img_prompt_7.jpg,Who has written the quote in the image?,,,0.888,,,0,18,18,6,,,,,,,,,,,,,,,,,,,,,,,,,,,,,,,,,Who has written the quote in the image?,0.888,,,,,,,,,,,,,,,,,,,,,,,,,,1603.3430244999981,1603.3578089000002,1603.3578089000002,1605.027483699996,1605.027483699996,1605.863004400002,1,1.6176215000014054,space,0.8227855000004638,None,,,,,,,,,1,001,2025-09-04_09h21.49.861,TEST_eye_tracker,2024.1.5,None,2025-09-04 09h22.00.081839 +0200,
24,C:\Users\id05278\Desktop\MLLM matteo\Task and screenshots\experiment-20250603T085947Z-1-001\experiment\responses_files\prompt_24.xlsx,C:\Users\id05278\Desktop\MLLM matteo\Task and screenshots\experiment-20250603T085947Z-1-001\experiment\responses_files\img_prompt_24.jpg,What's happening in the scene?,24,24.2,"The image depicts a man and a woman sitting on a couch in a living room. They are facing each other and appear to be engaged in a conversation or watching something together. The couch is positioned in the center of the room, with a dining table and a kitchen area visible in the background. There are several objects scattered around the room, including a TV, a laptop, a cell phone, and a few bottles. A refrigerator can be seen in the kitchen area, and a microwave is also present. The living room is furnished with a chair and a potted plant, adding a touch of greenery to the space.",3,LLaVA-RLHF-7b-v1.5-224,0,19,19,23,0,0,0,1,1657.1913620999985,,,,,,,,,,,,,,,,1605.933002400001,1605.942174099997,1606.4286945999993,1606.4287250999987,1606.4723247000002,1606.4723247000002,1606.4723247000002,1656.6961595999965,space,50.1944055999993,None,1657.1831508999967,What's happening in the scene?,"The image depicts a man and a woman sitting on a couch in a living room. They are facing each other and appear to be engaged in a conversation or watching something together. The couch is positioned in the center of the room, with a dining table and a kitchen area visible in the background. There are several objects scattered around the room, including a TV, a laptop, a cell phone, and a few bottles. A refrigerator can be seen in the kitchen area, and a microwave is also present. The living room is furnished with a chair and a potted plant, adding a touch of greenery to the space.",1657.1913620999985,1658.1607701999965,1658.1607841000005,1658.1944493999981,1684.4955206000013,space,26.280945400001656,None,1684.7128289999964,1684.7531806999978,1684.7531806999978,1684.7531806999978,1684.7531806999978,1691.5606279999993,1691.5606279999993,1692.1003981999966,space,0.5054620999944746,None,3,2.777846499993757,3,5.780957700000727,5,6.782079700002214,,,,,,,,,,,,1606.4723247000002,,,,,,,,1,001,2025-09-04_09h21.49.861,TEST_eye_tracker,2024.1.5,None,2025-09-04 09h22.00.081839 +0200,
24,C:\Users\id05278\Desktop\MLLM matteo\Task and screenshots\experiment-20250603T085947Z-1-001\experiment\responses_files\prompt_24.xlsx,C:\Users\id05278\Desktop\MLLM matteo\Task and screenshots\experiment-20250603T085947Z-1-001\experiment\responses_files\img_prompt_24.jpg,What's happening in the scene?,24,24.1,"In this scene, there is a person reclining on a couch in what appears to be a living room with the lights dimmed. They seem relaxed, possibly watching TV or looking at a mobile device. The individual has one leg crossed over the other and is holding a small dog in their lap, suggesting a moment of rest and companionship. The room is cluttered, with various items strewn about, including on the kitchen counter and the coffee table. This setting gives the impression of a casual, lived-in space where someone is unwinding after a day's activities. The overall atmosphere is one of domestic life and informality.",1,gpt-4v,0,19,19,23,0,1,1,0,1692.1275239000024,,,,,,,,,,,,,,,,,,,,,,,,,,,1692.1012199999968,What's happening in the scene?,"In this scene, there is a person reclining on a couch in what appears to be a living room with the lights dimmed. They seem relaxed, possibly watching TV or looking at a mobile device. The individual has one leg crossed over the other and is holding a small dog in their lap, suggesting a moment of rest and companionship. The room is cluttered, with various items strewn about, including on the kitchen counter and the coffee table. This setting gives the impression of a casual, lived-in space where someone is unwinding after a day's activities. The overall atmosphere is one of domestic life and informality.",1692.1275239000024,1693.1274933000022,1693.127509500002,1693.1608390999972,1729.4955464000013,space,36.31388660000084,None,1729.7043284999963,1729.7445560999986,1729.7445560999986,1729.7445560999986,1729.7445560999986,1733.0276460000023,1733.0276460000023,1733.4003092999992,space,0.3345859000037308,None,2,0.7863054999979795,3,2.421794800000498,5,3.25769240000227,,,,,,,,,,,,,,,,,,,,1,001,2025-09-04_09h21.49.861,TEST_eye_tracker,2024.1.5,None,2025-09-04 09h22.00.081839 +0200,
24,C:\Users\id05278\Desktop\MLLM matteo\Task and screenshots\experiment-20250603T085947Z-1-001\experiment\responses_files\prompt_24.xlsx,C:\Users\id05278\Desktop\MLLM matteo\Task and screenshots\experiment-20250603T085947Z-1-001\experiment\responses_files\img_prompt_24.jpg,What's happening in the scene?,,,0.888,,,0,19,19,23,,,,,,,,,,,,,,,,,,,,,,,,,,,,,,,,,What's happening in the scene?,0.888,,,,,,,,,,,,,,,,,,,,,,,,,,1733.5278792999961,1733.542478299998,1733.542478299998,1735.2277420999962,1735.2277420999962,1735.5966256000029,1,1.6330017000000225,space,0.3587642999991658,None,,,,,,,,,1,001,2025-09-04_09h21.49.861,TEST_eye_tracker,2024.1.5,None,2025-09-04 09h22.00.081839 +0200,
15,C:\Users\id05278\Desktop\MLLM matteo\Task and screenshots\experiment-20250603T085947Z-1-001\experiment\responses_files\prompt_15.xlsx,C:\Users\id05278\Desktop\MLLM matteo\Task and screenshots\experiment-20250603T085947Z-1-001\experiment\responses_files\img_prompt_15.jpg,What is the title of Naomi Klein's book?,15,15.1,The title of Naomi Klein's book is "The Shock Doctrine: The Rise of Disaster Capitalism.",5,gpt-4v,0,20,20,14,0,0,0,0,1752.001454199999,,,,,,,,,,,,,,,,1735.6725821,1735.6823976000014,1736.194311500003,1736.1943224999995,1736.229284699999,1736.229284699999,1736.229284699999,1751.6962851999997,space,15.461031200000434,None,1751.9934454999966,What is the title of Naomi Klein's book?,The title of Naomi Klein's book is "The Shock Doctrine: The Rise of Disaster Capitalism.",1752.001454199999,1752.9942659000008,1752.9942812000008,1753.028773799997,1759.0285570999986,space,5.990036199997121,None,1759.2243400000007,1759.2638468000005,1759.2638468000005,1759.2638468000005,1759.2638468000005,1762.8277948000032,1762.8277948000032,1763.1671576000008,space,0.3190199000018765,None,5,1.4666262000027928,5,2.70236009999644,5,3.5381878999978653,,,,,,,,,,,,,,,,,,,,1,001,2025-09-04_09h21.49.861,TEST_eye_tracker,2024.1.5,None,2025-09-04 09h22.00.081839 +0200,
15,C:\Users\id05278\Desktop\MLLM matteo\Task and screenshots\experiment-20250603T085947Z-1-001\experiment\responses_files\prompt_15.xlsx,C:\Users\id05278\Desktop\MLLM matteo\Task and screenshots\experiment-20250603T085947Z-1-001\experiment\responses_files\img_prompt_15.jpg,What is the title of Naomi Klein's book?,15,15.2,"The title of NaomiKlein's book "The Shock Doctrine" is "The End of Employment and the Rise of Disaster Capitalism." This book explores how economic policies have become increasingly harmful to human rights, social justice, and environmental sustainability. It argues that the shock doctrine has led to a situation where large-scale industries are being built in developing countries with little regard for local conditions or social implications.",2.333333333333333,VisualGLM-6b,0,20,20,14,0,1,1,1,1763.1942667999974,,,,,,,,,,,,,,,,,,,,,,,,,,,1763.1677484999964,What is the title of Naomi Klein's book?,"The title of NaomiKlein's book "The Shock Doctrine" is "The End of Employment and the Rise of Disaster Capitalism." This book explores how economic policies have become increasingly harmful to human rights, social justice, and environmental sustainability. It argues that the shock doctrine has led to a situation where large-scale industries are being built in developing countries with little regard for local conditions or social implications.",1763.1942667999974,1764.1945486999975,1764.1945739000003,1764.2278210000004,1783.562093499997,space,19.31059909999749,None,1783.7668916999974,1783.806932200001,1783.806932200001,1783.806932200001,1783.806932200001,1788.4944241999983,1788.4944241999983,1789.200270100002,space,0.6922359000018332,None,1,1.1567589000042062,1,3.2258771999986493,5,4.661339600002975,,,,,,,,,,,,,,,,,,,,1,001,2025-09-04_09h21.49.861,TEST_eye_tracker,2024.1.5,None,2025-09-04 09h22.00.081839 +0200,
15,C:\Users\id05278\Desktop\MLLM matteo\Task and screenshots\experiment-20250603T085947Z-1-001\experiment\responses_files\prompt_15.xlsx,C:\Users\id05278\Desktop\MLLM matteo\Task and screenshots\experiment-20250603T085947Z-1-001\experiment\responses_files\img_prompt_15.jpg,What is the title of Naomi Klein's book?,,,0.888,,,0,20,20,14,,,,,,,,,,,,,,,,,,,,,,,,,,,,,,,,,What is the title of Naomi Klein's book?,0.888,,,,,,,,,,,,,,,,,,,,,,,,,,1789.3306238000005,1789.3453332999998,1789.3453332999998,1790.6277891999998,1790.6277891999998,1791.3302794999981,1,1.2302763999978197,space,0.6783384999944246,None,,,,,,,,,1,001,2025-09-04_09h21.49.861,TEST_eye_tracker,2024.1.5,None,2025-09-04 09h22.00.081839 +0200,
4,C:\Users\id05278\Desktop\MLLM matteo\Task and screenshots\experiment-20250603T085947Z-1-001\experiment\responses_files\prompt_4.xlsx,C:\Users\id05278\Desktop\MLLM matteo\Task and screenshots\experiment-20250603T085947Z-1-001\experiment\responses_files\img_prompt_4.jpg,Please provide an intricate breakdown of the image.,4,4.1,"The image is a compilation of four photos, each depicting a man performing a trick on a skateboard. The man is wearing a black shirt and jeans throughout the sequence. In the first photo, the man is at the top of a ramp, preparing to drop in and ride his skateboard down the ramp. The following three photos show him in mid-air, executing a trick that involves jumping over a ledge. The sequence captures the motion and excitement of the skateboarder's performance.",4,Qwen-VL-Chat,0,21,21,3,0,0,0,0,1811.9090333999993,,,,,,,,,,,,,,,,1791.397131400001,1791.4063122000007,1791.8950723000016,1791.8950839000026,1791.9294209,1791.9294209,1791.9294209,1811.4306104999996,space,19.496959899996,None,1811.901003699997,Please provide an intricate breakdown of the image.,"The image is a compilation of four photos, each depicting a man performing a trick on a skateboard. The man is wearing a black shirt and jeans throughout the sequence. In the first photo, the man is at the top of a ramp, preparing to drop in and ride his skateboard down the ramp. The following three photos show him in mid-air, executing a trick that involves jumping over a ledge. The sequence captures the motion and excitement of the skateboarder's performance.",1811.9090333999993,1812.8943862000015,1812.8943991999986,1812.9277392000004,1839.7288040999993,space,26.794291699996393,None,1839.9324769000013,1839.9712376000025,1839.9712376000025,1839.9712376000025,1839.9712376000025,1844.361208299997,1844.361208299997,1845.0008372000011,space,0.6016343000010238,None,4,0.7925968999988982,4,3.66053280000051,5,4.364320599997882,,,,,,,,,,,,1791.9294209,,,,,,,,1,001,2025-09-04_09h21.49.861,TEST_eye_tracker,2024.1.5,None,2025-09-04 09h22.00.081839 +0200,
4,C:\Users\id05278\Desktop\MLLM matteo\Task and screenshots\experiment-20250603T085947Z-1-001\experiment\responses_files\prompt_4.xlsx,C:\Users\id05278\Desktop\MLLM matteo\Task and screenshots\experiment-20250603T085947Z-1-001\experiment\responses_files\img_prompt_4.jpg,Please provide an intricate breakdown of the image.,4,4.2,"The image is a collage of six different shots featuring a skateboarder performing various tricks on a skateboard. The skateboarder is captured in different positions and stages of the tricks, showcasing their skills and the progression of the stunts. In each of the six shots, the skateboarder is wearing a black shirt, and the skateboard is visible in various positions throughout the collage. The skateboarder is captured in different stages of the tricks, from the initial approach to the peak of the stunt and the landing. The collage captures the essence of the skateboarder's performance and the excitement of the sport.",4.666666666666667,llava1.5-13b,0,21,21,3,0,1,1,1,1845.0279691999967,,,,,,,,,,,,,,,,,,,,,,,,,,,1845.0013731,Please provide an intricate breakdown of the image.,"The image is a collage of six different shots featuring a skateboarder performing various tricks on a skateboard. The skateboarder is captured in different positions and stages of the tricks, showcasing their skills and the progression of the stunts. In each of the six shots, the skateboarder is wearing a black shirt, and the skateboard is visible in various positions throughout the collage. The skateboarder is captured in different stages of the tricks, from the initial approach to the peak of the stunt and the landing. The collage captures the essence of the skateboarder's performance and the excitement of the sport.",1845.0279691999967,1846.0278088999985,1846.0278206000003,1846.0614932000026,1891.095397600002,space,45.020856600000116,None,1891.3020754999961,1891.3407442000025,1891.3407442000025,1891.3407442000025,1891.3407442000025,1895.727889599999,1895.727889599999,1896.667077799997,space,0.9223169000033522,None,2,0.8233321999941836,3,3.524352299995371,5,4.362386199994944,,,,,,,,,,,,,,,,,,,,1,001,2025-09-04_09h21.49.861,TEST_eye_tracker,2024.1.5,None,2025-09-04 09h22.00.081839 +0200,
4,C:\Users\id05278\Desktop\MLLM matteo\Task and screenshots\experiment-20250603T085947Z-1-001\experiment\responses_files\prompt_4.xlsx,C:\Users\id05278\Desktop\MLLM matteo\Task and screenshots\experiment-20250603T085947Z-1-001\experiment\responses_files\img_prompt_4.jpg,Please provide an intricate breakdown of the image.,,,0.888,,,0,21,21,3,,,,,,,,,,,,,,,,,,,,,,,,,,,,,,,,,Please provide an intricate breakdown of the image.,0.888,,,,,,,,,,,,,,,,,,,,,,,,,,1896.8044291999977,1896.819064000003,1896.819064000003,1898.2612588999982,1898.2612588999982,1898.763886599998,1,1.3903435000029276,space,0.46936200000345707,None,,,,,,,,,1,001,2025-09-04_09h21.49.861,TEST_eye_tracker,2024.1.5,None,2025-09-04 09h22.00.081839 +0200,
1,C:\Users\id05278\Desktop\MLLM matteo\Task and screenshots\experiment-20250603T085947Z-1-001\experiment\responses_files\prompt_1.xlsx,C:\Users\id05278\Desktop\MLLM matteo\Task and screenshots\experiment-20250603T085947Z-1-001\experiment\responses_files\img_prompt_1.jpg,What is the name of the school mentioned in the image?,1,1.1,The name of the school mentioned in the image is Witch School.,5,Qwen-VL-Chat,0,22,22,0,0,0,0,0,1925.4691261999978,,,,,,,,,,,,,,,,1898.8360857000007,1898.845041200002,1899.3282548999996,1899.3282667000021,1899.3628234999996,1899.3628234999996,1899.3628234999996,1924.9969840999984,space,25.63209089999873,None,1925.460665300001,What is the name of the school mentioned in the image?,The name of the school mentioned in the image is Witch School.,1925.4691261999978,1926.4613039999967,1926.4613160000008,1926.495159099999,1931.730043399999,space,5.226858899994113,None,1931.9269620999985,1931.9668257000012,1931.9668257000012,1931.9668257000012,1931.9668257000012,1935.594529599999,1935.594529599999,1935.9671369999996,space,0.3596804999979213,None,5,1.8978647000039928,5,2.666841599995678,5,3.602942299999995,,,,,,,,,,,,1899.3628234999996,,,,,,,,1,001,2025-09-04_09h21.49.861,TEST_eye_tracker,2024.1.5,None,2025-09-04 09h22.00.081839 +0200,
1,C:\Users\id05278\Desktop\MLLM matteo\Task and screenshots\experiment-20250603T085947Z-1-001\experiment\responses_files\prompt_1.xlsx,C:\Users\id05278\Desktop\MLLM matteo\Task and screenshots\experiment-20250603T085947Z-1-001\experiment\responses_files\img_prompt_1.jpg,What is the name of the school mentioned in the image?,1,1.2,"The image shows a book called "Witch School" with an old witch's hat on it. It has been written by a person named "J." and appears to be published by a company known as "The Witches' Hat Company," which may have multiple titles under that name.",2,VisualGLM-6b,0,22,22,0,0,1,1,1,1935.9945499000023,,,,,,,,,,,,,,,,,,,,,,,,,,,1935.9677335000015,What is the name of the school mentioned in the image?,"The image shows a book called "Witch School" with an old witch's hat on it. It has been written by a person named "J." and appears to be published by a company known as "The Witches' Hat Company," which may have multiple titles under that name.",1935.9945499000023,1936.9944245000006,1936.9944367999997,1937.0279585000026,1961.2953460999997,space,24.254340400002548,None,1961.4941454,1961.5368027000004,1961.5368027000004,1961.5368027000004,1961.5368027000004,1969.2944868999984,1969.2944868999984,1969.5338391999976,space,0.22831849999784026,None,1,3.0974305999989156,1,6.633371899995836,5,7.735644599997613,,,,,,,,,,,,,,,,,,,,1,001,2025-09-04_09h21.49.861,TEST_eye_tracker,2024.1.5,None,2025-09-04 09h22.00.081839 +0200,
1,C:\Users\id05278\Desktop\MLLM matteo\Task and screenshots\experiment-20250603T085947Z-1-001\experiment\responses_files\prompt_1.xlsx,C:\Users\id05278\Desktop\MLLM matteo\Task and screenshots\experiment-20250603T085947Z-1-001\experiment\responses_files\img_prompt_1.jpg,What is the name of the school mentioned in the image?,,,0.888,,,0,22,22,0,,,,,,,,,,,,,,,,,,,,,,,,,,,,,,,,,What is the name of the school mentioned in the image?,0.888,,,,,,,,,,,,,,,,,,,,,,,,,,1969.6717594000002,1969.686764500002,1969.686764500002,1970.761359199998,1970.761359199998,1971.1305329000024,1,1.0227728999961982,space,0.35330099999555387,None,,,,,,,,,1,001,2025-09-04_09h21.49.861,TEST_eye_tracker,2024.1.5,None,2025-09-04 09h22.00.081839 +0200,
11,C:\Users\id05278\Desktop\MLLM matteo\Task and screenshots\experiment-20250603T085947Z-1-001\experiment\responses_files\prompt_11.xlsx,C:\Users\id05278\Desktop\MLLM matteo\Task and screenshots\experiment-20250603T085947Z-1-001\experiment\responses_files\img_prompt_11.jpg,What color is the predominant airplane on display?,11,11.2,"The predominant airplane on display is blue, with additional stripes in red, white, and green.",3.333333333333333,gpt-4v,0,23,23,10,0,0,0,1,1995.3188298000023,,,,,,,,,,,,,,,,1971.2051104999991,1971.2140278000006,1971.7283793000024,1971.7284063999978,1971.7685741000023,1971.7685741000023,1971.7685741000023,1994.8633986999994,space,23.066204200003995,None,1995.3100984999983,What color is the predominant airplane on display?,"The predominant airplane on display is blue, with additional stripes in red, white, and green.",1995.3188298000023,1996.2946327000027,1996.294646000002,1996.3280424999975,2003.2290779000032,space,6.89846089999628,None,2003.4322780000002,2003.4712858999992,2003.4712858999992,2003.4712858999992,2003.4712858999992,2006.2280867000009,2006.2280867000009,2006.867303799998,space,0.6144931000017095,None,5,1.159618199999386,5,1.928522399997746,5,2.7303759999995236,,,,,,,,,,,,,,,,,,,,1,001,2025-09-04_09h21.49.861,TEST_eye_tracker,2024.1.5,None,2025-09-04 09h22.00.081839 +0200,
11,C:\Users\id05278\Desktop\MLLM matteo\Task and screenshots\experiment-20250603T085947Z-1-001\experiment\responses_files\prompt_11.xlsx,C:\Users\id05278\Desktop\MLLM matteo\Task and screenshots\experiment-20250603T085947Z-1-001\experiment\responses_files\img_prompt_11.jpg,What color is the predominant airplane on display?,11,11.1,The predominant airplane on display is blue.,2,llava1.5-13b,0,23,23,10,0,1,1,0,2006.8949704999977,,,,,,,,,,,,,,,,,,,,,,,,,,,2006.8678329999966,What color is the predominant airplane on display?,The predominant airplane on display is blue.,2006.8949704999977,2007.8948285000006,2007.8948423999973,2007.9280700000018,2011.6287512999988,space,3.681933300002129,None,2011.8252528000012,2011.8644000999993,2011.8644000999993,2011.8644000999993,2011.8644000999993,2014.5947618999999,2014.5947618999999,2015.434310800003,space,0.8071271000007982,None,5,0.8667745999991894,5,1.9017100000055507,5,2.7042187999977614,,,,,,,,,,,,,,,,,,,,1,001,2025-09-04_09h21.49.861,TEST_eye_tracker,2024.1.5,None,2025-09-04 09h22.00.081839 +0200,
11,C:\Users\id05278\Desktop\MLLM matteo\Task and screenshots\experiment-20250603T085947Z-1-001\experiment\responses_files\prompt_11.xlsx,C:\Users\id05278\Desktop\MLLM matteo\Task and screenshots\experiment-20250603T085947Z-1-001\experiment\responses_files\img_prompt_11.jpg,What color is the predominant airplane on display?,,,0.888,,,0,23,23,10,,,,,,,,,,,,,,,,,,,,,,,,,,,,,,,,,What color is the predominant airplane on display?,0.888,,,,,,,,,,,,,,,,,,,,,,,,,,2015.564287699999,2015.578732199996,2015.578732199996,2016.3947447000028,2016.3947447000028,2017.297852399999,2,0.76383050000004,space,0.8719321000025957,None,,,,,,,,,1,001,2025-09-04_09h21.49.861,TEST_eye_tracker,2024.1.5,None,2025-09-04 09h22.00.081839 +0200,
