n_prompt,prompt_file,image_file,prompt_text,related_prompt,n_resp,resp_text,rank,model,Trial.thisRepN,Trial.thisTrialN,Trial.thisN,Trial.thisIndex,per_answer.thisRepN,per_answer.thisTrialN,per_answer.thisN,per_answer.thisIndex,thisRow.t,notes,Intro_1.started,key_resp_5.started,textbox.started,Intro_1.stopped,key_resp_5.keys,key_resp_5.rt,key_resp_5.duration,Intro_2.started,textbox_2.started,key_resp_8.started,Intro_2.stopped,key_resp_8.keys,key_resp_8.rt,key_resp_8.duration,prompt_number.started,text.started,prompt_number.stopped,prompt.started,Prompt_.started,image.started,key_resp_4.started,prompt.stopped,key_resp_4.keys,key_resp_4.rt,key_resp_4.duration,Cross.started,prompt_text,resp_text,cross_white.started,Cross.stopped,trial_textbox.started,key_resp_2.started,trial_textbox.stopped,key_resp_2.keys,key_resp_2.rt,key_resp_2.duration,rating.started,question_useful_2.started,Inaccurate_Faithful.started,Not_Helpful_Helpful.started,ViolentHarmless.started,key_resp_6.started,press_space.started,rating.stopped,key_resp_6.keys,key_resp_6.rt,key_resp_6.duration,Inaccurate_Faithful.response,Inaccurate_Faithful.rt,Not_Helpful_Helpful.response,Not_Helpful_Helpful.rt,ViolentHarmless.response,ViolentHarmless.rt,ranking.started,question_ranking.started,ranking_better.started,key_resp_7.started,text_2.started,ranking.stopped,ranking_better.response,ranking_better.rt,key_resp_7.keys,key_resp_7.rt,key_resp_7.duration,text.stopped,End.started,Bye_message.started,press_to_end_exp.started,End.stopped,press_to_end_exp.keys,press_to_end_exp.rt,press_to_end_exp.duration,participant,session,date,expName,psychopyVersion,frameRate,expStart,
,,,,,,,,,,,,,,,,,,,0.004559199995128438,0.01786200000788085,0.01786200000788085,2.4229101999953855,space,2.3922638000221923,None,,,,,,,,,,,,,,,,,,,,,,,,,,,,,,,,,,,,,,,,,,,,,,,,,,,,,,,,,,,,,,,,,,1,001,2025-09-02_16h03.17.492,TEST_eye_tracker,2024.1.5,None,2025-09-02 16h03.27.247390 +0200,
,,,,,,,,,,,,,,,,,,,,,,,,,,2.422939799987944,2.4526620999968145,2.4526620999968145,4.120039900008123,space,1.6451961999991909,None,,,,,,,,,,,,,,,,,,,,,,,,,,,,,,,,,,,,,,,,,,,,,,,,,,,,,,,,,,,1,001,2025-09-02_16h03.17.492,TEST_eye_tracker,2024.1.5,None,2025-09-02 16h03.27.247390 +0200,
7,C:\Users\id05278\Desktop\MLLM matteo\Task and screenshots\experiment-20250603T085947Z-1-001\experiment\responses_files\prompt_7.xlsx,C:\Users\id05278\Desktop\MLLM matteo\Task and screenshots\experiment-20250603T085947Z-1-001\experiment\responses_files\img_prompt_7.jpg,Who has written the quote in the image?,7,7.1,Jignesh Jain,5,fuyu-8b,0,0,0,6,0,0,0,0,15.370833699998911,,,,,,,,,,,,,,,,4.127305400004843,4.152305800002068,4.6526971999846864,4.652709699992556,6.638405200006673,6.638405200006673,6.638405200006673,15.087930399982724,space,8.428637500008335,None,15.36241470000823,Who has written the quote in the image?,Jignesh Jain,15.370833699998911,16.386111300002085,16.386125999997603,16.421532999986084,20.286794199986616,space,3.8613565000123344,None,20.482031599996844,20.958191899990197,20.958191899990197,20.958191899990197,20.958191899990197,29.571017899987055,29.571017899987055,29.691872199997306,space,0.10378529998706654,None,5,4.368958300008671,5,7.404176300013205,5,8.573097300017253,,,,,,,,,,,,,,,,,,,,1,001,2025-09-02_16h03.17.492,TEST_eye_tracker,2024.1.5,None,2025-09-02 16h03.27.247390 +0200,
7,C:\Users\id05278\Desktop\MLLM matteo\Task and screenshots\experiment-20250603T085947Z-1-001\experiment\responses_files\prompt_7.xlsx,C:\Users\id05278\Desktop\MLLM matteo\Task and screenshots\experiment-20250603T085947Z-1-001\experiment\responses_files\img_prompt_7.jpg,Who has written the quote in the image?,7,7.2,"The image shows two people holding hands, one person's hand on top of another. They are smiling and seem to be at peace with each other. This is a beautiful moment that depicts love between two individuals who have been together for some time or even forever.",2.333333333333333,VisualGLM-6b,0,0,0,6,0,1,1,1,29.71923990000505,,,,,,,,,,,,,,,,,,,,,,,,,,,29.692442200001096,Who has written the quote in the image?,"The image shows two people holding hands, one person's hand on top of another. They are smiling and seem to be at peace with each other. This is a beautiful moment that depicts love between two individuals who have been together for some time or even forever.",29.71923990000505,30.719326999998884,30.719338900002185,30.75361489999341,36.4534408999898,space,5.681173099990701,None,36.653313699993305,36.69288250000682,36.69288250000682,36.69288250000682,36.69288250000682,40.51908810000168,40.51908810000168,40.791923399985535,space,0.23523009999189526,None,2,1.4626751999894623,2,2.7317049000121187,5,3.8005584999918938,,,,,,,,,,,,,,,,,,,,1,001,2025-09-02_16h03.17.492,TEST_eye_tracker,2024.1.5,None,2025-09-02 16h03.27.247390 +0200,
7,C:\Users\id05278\Desktop\MLLM matteo\Task and screenshots\experiment-20250603T085947Z-1-001\experiment\responses_files\prompt_7.xlsx,C:\Users\id05278\Desktop\MLLM matteo\Task and screenshots\experiment-20250603T085947Z-1-001\experiment\responses_files\img_prompt_7.jpg,Who has written the quote in the image?,,,0.888,,,0,0,0,6,,,,,,,,,,,,,,,,,,,,,,,,,,,,,,,,,Who has written the quote in the image?,0.888,,,,,,,,,,,,,,,,,,,,,,,,,,40.831615000002785,40.84820020000916,40.84820020000916,42.58633709998685,42.58633709998685,42.78869940000004,1,1.687531300005503,space,0.18382390000624582,None,,,,,,,,,1,001,2025-09-02_16h03.17.492,TEST_eye_tracker,2024.1.5,None,2025-09-02 16h03.27.247390 +0200,
12,C:\Users\id05278\Desktop\MLLM matteo\Task and screenshots\experiment-20250603T085947Z-1-001\experiment\responses_files\prompt_12.xlsx,C:\Users\id05278\Desktop\MLLM matteo\Task and screenshots\experiment-20250603T085947Z-1-001\experiment\responses_files\img_prompt_12.jpg,What is the man doing with the skateboard?,12,12.2,"The man is performing a skateboarding trick known as an "ollie." This is a fundamental skateboarding trick where the rider and board leap into the air without the use of the rider's hands. The trick is executed by snapping the tail of the skateboard down while jumping, which causes the board to pop into the air. It appears that he is doing this on a city street with buildings and clear blue skies in the background.",3.333333333333333,gpt-4v,0,1,1,11,0,0,0,1,45.520703599991975,,,,,,,,,,,,,,,,42.85354250000091,42.86623009998584,43.353173699986655,43.35318889998598,43.387374499987345,43.387374499987345,43.387374499987345,45.021618900005706,space,1.622250799991889,None,45.51255620000302,What is the man doing with the skateboard?,"The man is performing a skateboarding trick known as an "ollie." This is a fundamental skateboarding trick where the rider and board leap into the air without the use of the rider's hands. The trick is executed by snapping the tail of the skateboard down while jumping, which causes the board to pop into the air. It appears that he is doing this on a city street with buildings and clear blue skies in the background.",45.520703599991975,46.519364000007045,46.5193755000073,46.55411609998555,59.653579000005266,space,13.071470500028227,None,59.8601134000055,59.89983399998164,59.89983399998164,59.89983399998164,59.89983399998164,65.05261339998106,65.05261339998106,65.39201009998214,space,0.3173524000158068,None,4,1.3896917999954894,5,4.058155199978501,5,5.127003800007515,,,,,,,,,,,,43.387374499987345,,,,,,,,1,001,2025-09-02_16h03.17.492,TEST_eye_tracker,2024.1.5,None,2025-09-02 16h03.27.247390 +0200,
12,C:\Users\id05278\Desktop\MLLM matteo\Task and screenshots\experiment-20250603T085947Z-1-001\experiment\responses_files\prompt_12.xlsx,C:\Users\id05278\Desktop\MLLM matteo\Task and screenshots\experiment-20250603T085947Z-1-001\experiment\responses_files\img_prompt_12.jpg,What is the man doing with the skateboard?,12,12.1,"The man is performing a trick on his skateboard, jumping in the air while riding it.",4.666666666666667,Qwen-VL-Chat,0,1,1,11,0,1,1,0,65.41934069999843,,,,,,,,,,,,,,,,,,,,,,,,,,,65.39259969998966,What is the man doing with the skateboard?,"The man is performing a trick on his skateboard, jumping in the air while riding it.",65.41934069999843,66.41932899999665,66.41934120000224,66.45256730000256,68.98669639998116,space,2.501336799992714,None,69.18025559998932,69.2228991999873,69.2228991999873,69.2228991999873,69.2228991999873,74.38589239999419,74.38589239999419,74.55874469998525,space,0.14347759998054244,None,4,3.069408300012583,3,4.237786400015466,5,5.140323500003433,,,,,,,,,,,,,,,,,,,,1,001,2025-09-02_16h03.17.492,TEST_eye_tracker,2024.1.5,None,2025-09-02 16h03.27.247390 +0200,
12,C:\Users\id05278\Desktop\MLLM matteo\Task and screenshots\experiment-20250603T085947Z-1-001\experiment\responses_files\prompt_12.xlsx,C:\Users\id05278\Desktop\MLLM matteo\Task and screenshots\experiment-20250603T085947Z-1-001\experiment\responses_files\img_prompt_12.jpg,What is the man doing with the skateboard?,,,0.888,,,0,1,1,11,,,,,,,,,,,,,,,,,,,,,,,,,,,,,,,,,What is the man doing with the skateboard?,0.888,,,,,,,,,,,,,,,,,,,,,,,,,,74.60764899998321,74.6223164999974,74.6223164999974,76.58580509998137,76.58580509998137,76.8549989000021,1,1.911145000020042,space,0.2565290999773424,None,,,,,,,,,1,001,2025-09-02_16h03.17.492,TEST_eye_tracker,2024.1.5,None,2025-09-02 16h03.27.247390 +0200,
8,C:\Users\id05278\Desktop\MLLM matteo\Task and screenshots\experiment-20250603T085947Z-1-001\experiment\responses_files\prompt_8.xlsx,C:\Users\id05278\Desktop\MLLM matteo\Task and screenshots\experiment-20250603T085947Z-1-001\experiment\responses_files\img_prompt_8.jpg,What are the prominent objects in the image?,8,8.1,"The prominent objects in the image are a train and a train station. The train is traveling down the tracks, and the train station is situated next to the tracks.",2,LLaVA-RLHF-7b-v1.5-224,0,2,2,7,0,0,0,0,80.6411553999933,,,,,,,,,,,,,,,,76.91755700000795,76.92812799999956,77.41957500000717,77.41958739998518,77.45470329999807,77.45470329999807,77.45470329999807,80.25467409999692,space,2.771069600014016,None,80.63264409999829,What are the prominent objects in the image?,"The prominent objects in the image are a train and a train station. The train is traveling down the tracks, and the train station is situated next to the tracks.",80.6411553999933,81.65271359999315,81.65272539999569,81.68591549998382,85.65339819999645,space,3.94085390001419,None,85.84960119999596,85.888432799984,85.888432799984,85.888432799984,85.888432799984,89.35248939998564,89.35248939998564,89.5252019999898,space,0.13733440000214614,None,4,1.5003049000224564,4,2.169139199977508,5,3.4377650000096764,,,,,,,,,,,,,,,,,,,,1,001,2025-09-02_16h03.17.492,TEST_eye_tracker,2024.1.5,None,2025-09-02 16h03.27.247390 +0200,
8,C:\Users\id05278\Desktop\MLLM matteo\Task and screenshots\experiment-20250603T085947Z-1-001\experiment\responses_files\prompt_8.xlsx,C:\Users\id05278\Desktop\MLLM matteo\Task and screenshots\experiment-20250603T085947Z-1-001\experiment\responses_files\img_prompt_8.jpg,What are the prominent objects in the image?,8,8.2,"The prominent objects in the image include a train, a station platform, and a train station.",4,fuyu-8b,0,2,2,7,0,1,1,1,89.55240729998332,,,,,,,,,,,,,,,,,,,,,,,,,,,89.52574199999799,What are the prominent objects in the image?,"The prominent objects in the image include a train, a station platform, and a train station.",89.55240729998332,90.55269849998876,90.55271079999511,90.58594920000178,92.98675219999859,space,2.375278999999864,None,93.18221880000783,93.22123419999843,93.22123419999843,93.22123419999843,93.22123419999843,97.28593310000724,97.28593310000724,102.92547809999087,space,5.627691200003028,None,4,0.9008680999977514,5,6.26986240001861,5,4.039170000003651,,,,,,,,,,,,,,,,,,,,1,001,2025-09-02_16h03.17.492,TEST_eye_tracker,2024.1.5,None,2025-09-02 16h03.27.247390 +0200,
8,C:\Users\id05278\Desktop\MLLM matteo\Task and screenshots\experiment-20250603T085947Z-1-001\experiment\responses_files\prompt_8.xlsx,C:\Users\id05278\Desktop\MLLM matteo\Task and screenshots\experiment-20250603T085947Z-1-001\experiment\responses_files\img_prompt_8.jpg,What are the prominent objects in the image?,,,0.888,,,0,2,2,7,,,,,,,,,,,,,,,,,,,,,,,,,,,,,,,,,What are the prominent objects in the image?,0.888,,,,,,,,,,,,,,,,,,,,,,,,,,102.97696770000039,102.99160979999579,102.99160979999579,103.85267019999446,103.85267019999446,104.9216027999937,2,0.8085010999930091,space,1.0365678000089247,None,,,,,,,,,1,001,2025-09-02_16h03.17.492,TEST_eye_tracker,2024.1.5,None,2025-09-02 16h03.27.247390 +0200,
19,C:\Users\id05278\Desktop\MLLM matteo\Task and screenshots\experiment-20250603T085947Z-1-001\experiment\responses_files\prompt_19.xlsx,C:\Users\id05278\Desktop\MLLM matteo\Task and screenshots\experiment-20250603T085947Z-1-001\experiment\responses_files\img_prompt_19.jpg,What is the man doing in the image?,19,19.2,The man in the image is riding skis down a snow-covered slope while holding an ax in his hand.,2.333333333333333,Qwen-VL-Chat,0,3,3,18,0,0,0,1,113.2451594999875,,,,,,,,,,,,,,,,104.981638199999,104.99262820000877,105.48601699998835,105.48602869999013,105.5205425999884,105.5205425999884,105.5205425999884,112.75455250000232,space,7.20095670002047,None,113.23734890000196,What is the man doing in the image?,The man in the image is riding skis down a snow-covered slope while holding an ax in his hand.,113.2451594999875,114.21938920000684,114.21940090000862,114.25384789999225,121.25348459999077,space,6.995279499999015,None,121.45974819999537,121.49961529998109,121.49961529998109,121.49961529998109,121.49961529998109,128.1193357000011,128.1193357000011,131.09163549999357,space,2.9539961999980733,None,3,1.2233724000107031,3,2.492169400007697,5,6.594469400006346,,,,,,,,,,,,,,,,,,,,1,001,2025-09-02_16h03.17.492,TEST_eye_tracker,2024.1.5,None,2025-09-02 16h03.27.247390 +0200,
19,C:\Users\id05278\Desktop\MLLM matteo\Task and screenshots\experiment-20250603T085947Z-1-001\experiment\responses_files\prompt_19.xlsx,C:\Users\id05278\Desktop\MLLM matteo\Task and screenshots\experiment-20250603T085947Z-1-001\experiment\responses_files\img_prompt_19.jpg,What is the man doing in the image?,19,19.1,"The man in the image is snowboarding down a snow-covered slope, holding a large red axe or a long stick. He is wearing a plaid shirt and appears to be enjoying his time on the snowy hill. It is not common for snowboarders to carry a large axe or stick while snowboarding, so this unusual combination of snowboarding and carrying a large tool might be a unique aspect of this particular scene. It could be that the man is participating in some kind of special event or demonstration, or perhaps he is using the large red axe for a specific purpose, such as clearing snow or providing some kind of assistance during his snowboarding adventure.",3,LLaVA-RLHF-7b-v1.5-224,0,3,3,18,0,1,1,0,131.11944059998496,,,,,,,,,,,,,,,,,,,,,,,,,,,131.09218740000506,What is the man doing in the image?,"The man in the image is snowboarding down a snow-covered slope, holding a large red axe or a long stick. He is wearing a plaid shirt and appears to be enjoying his time on the snowy hill. It is not common for snowboarders to carry a large axe or stick while snowboarding, so this unusual combination of snowboarding and carrying a large tool might be a unique aspect of this particular scene. It could be that the man is participating in some kind of special event or demonstration, or perhaps he is using the large red axe for a specific purpose, such as clearing snow or providing some kind of assistance during his snowboarding adventure.",131.11944059998496,132.11965099998633,132.11966279998887,132.15412809999543,154.58705919998465,space,22.42328930000076,None,154.79497419999097,154.8349079999898,154.8349079999898,154.8349079999898,154.8349079999898,162.71939559999737,162.71939559999737,163.4585422000091,space,0.7144919999991544,None,4,4.554545699997107,5,6.356844399997499,5,7.859056499990402,,,,,,,,,,,,,,,,,,,,1,001,2025-09-02_16h03.17.492,TEST_eye_tracker,2024.1.5,None,2025-09-02 16h03.27.247390 +0200,
19,C:\Users\id05278\Desktop\MLLM matteo\Task and screenshots\experiment-20250603T085947Z-1-001\experiment\responses_files\prompt_19.xlsx,C:\Users\id05278\Desktop\MLLM matteo\Task and screenshots\experiment-20250603T085947Z-1-001\experiment\responses_files\img_prompt_19.jpg,What is the man doing in the image?,,,0.888,,,0,3,3,18,,,,,,,,,,,,,,,,,,,,,,,,,,,,,,,,,What is the man doing in the image?,0.888,,,,,,,,,,,,,,,,,,,,,,,,,,163.5155597999983,163.53044400000363,163.53044400000363,164.81961899998714,164.81961899998714,165.088274299982,2,1.2368107000074815,space,0.26181440000073053,None,,,,,,,,,1,001,2025-09-02_16h03.17.492,TEST_eye_tracker,2024.1.5,None,2025-09-02 16h03.27.247390 +0200,
29,C:\Users\id05278\Desktop\MLLM matteo\Task and screenshots\experiment-20250603T085947Z-1-001\experiment\responses_files\prompt_29.xlsx,C:\Users\id05278\Desktop\MLLM matteo\Task and screenshots\experiment-20250603T085947Z-1-001\experiment\responses_files\img_prompt_29.jpg,What is the title of the book or study mentioned in the image?,29,29.2,Reaching for Home: Global Learning on Family Reintegration in Low and Lower-Middle Income Countries,2.666666666666667,llava1.5-13b,0,4,4,28,0,0,0,1,183.1453746999905,,,,,,,,,,,,,,,,165.15092889999505,165.16224559998955,165.65293789998395,165.65295190000325,165.68805409999914,165.68805409999914,165.68805409999914,182.65429879998555,space,16.938141099992208,None,183.13724089998868,What is the title of the book or study mentioned in the image?,Reaching for Home: Global Learning on Family Reintegration in Low and Lower-Middle Income Countries,183.1453746999905,184.11971830000402,184.1197312999866,184.15396019999753,186.78692610000144,space,2.616200399992522,None,186.99107180000283,187.03082319998066,187.03082319998066,187.03082319998066,187.03082319998066,189.31935639999574,189.31935639999574,189.55909059999976,space,0.22608839999884367,None,5,0.892172899999423,5,1.5605559000105131,5,2.263008100009756,,,,,,,,,,,,,,,,,,,,1,001,2025-09-02_16h03.17.492,TEST_eye_tracker,2024.1.5,None,2025-09-02 16h03.27.247390 +0200,
29,C:\Users\id05278\Desktop\MLLM matteo\Task and screenshots\experiment-20250603T085947Z-1-001\experiment\responses_files\prompt_29.xlsx,C:\Users\id05278\Desktop\MLLM matteo\Task and screenshots\experiment-20250603T085947Z-1-001\experiment\responses_files\img_prompt_29.jpg,What is the title of the book or study mentioned in the image?,29,29.1,Reaching for Home,5,fuyu-8b,0,4,4,28,0,1,1,0,189.58603569999104,,,,,,,,,,,,,,,,,,,,,,,,,,,189.5596852999879,What is the title of the book or study mentioned in the image?,Reaching for Home,189.58603569999104,190.5861723999842,190.58618630000274,190.61920600000303,192.05375910000294,space,1.406593099993188,None,192.25719139998546,192.29619589998038,192.29619589998038,192.29619589998038,192.29619589998038,197.4194845999882,197.4194845999882,197.65905449999264,space,0.23047300000325777,None,3,2.192665400012629,3,3.9951386000029743,5,5.097812299994985,,,,,,,,,,,,,,,,,,,,1,001,2025-09-02_16h03.17.492,TEST_eye_tracker,2024.1.5,None,2025-09-02 16h03.27.247390 +0200,
29,C:\Users\id05278\Desktop\MLLM matteo\Task and screenshots\experiment-20250603T085947Z-1-001\experiment\responses_files\prompt_29.xlsx,C:\Users\id05278\Desktop\MLLM matteo\Task and screenshots\experiment-20250603T085947Z-1-001\experiment\responses_files\img_prompt_29.jpg,What is the title of the book or study mentioned in the image?,,,0.888,,,0,4,4,28,,,,,,,,,,,,,,,,,,,,,,,,,,,,,,,,,What is the title of the book or study mentioned in the image?,0.888,,,,,,,,,,,,,,,,,,,,,,,,,,197.7305342000036,197.74522509999224,197.74522509999224,199.0867287000001,199.0867287000001,199.28859740000917,1,1.2893789999943692,space,0.1958106000092812,None,,,,,,,,,1,001,2025-09-02_16h03.17.492,TEST_eye_tracker,2024.1.5,None,2025-09-02 16h03.27.247390 +0200,
9,C:\Users\id05278\Desktop\MLLM matteo\Task and screenshots\experiment-20250603T085947Z-1-001\experiment\responses_files\prompt_9.xlsx,C:\Users\id05278\Desktop\MLLM matteo\Task and screenshots\experiment-20250603T085947Z-1-001\experiment\responses_files\img_prompt_9.jpg,Describe the overall appearance and atmosphere of the bedroom in the image.,9,9.1,"The bedroom in the image has a modern and stylish appearance, featuring a large bed with white pillows and a white comforter. The room is dimly lit, creating a cozy and intimate atmosphere. The bed is positioned next to a wall, and there is a lamp on the nightstand, providing additional lighting in the room. The overall ambiance of the bedroom is inviting and comfortable, making it an ideal space for relaxation and rest.",2,llava1.5-13b,0,5,5,8,0,0,0,0,208.1044302000082,,,,,,,,,,,,,,,,199.3506364999921,199.36079730000347,199.85290749999695,199.85291940000025,199.8901324000035,199.8901324000035,199.8901324000035,207.62164599998505,space,7.719618399976753,None,208.09635340000386,Describe the overall appearance and atmosphere of the bedroom in the image.,"The bedroom in the image has a modern and stylish appearance, featuring a large bed with white pillows and a white comforter. The room is dimly lit, creating a cozy and intimate atmosphere. The bed is positioned next to a wall, and there is a lamp on the nightstand, providing additional lighting in the room. The overall ambiance of the bedroom is inviting and comfortable, making it an ideal space for relaxation and rest.",208.1044302000082,209.0861772999924,209.0861917999864,209.1207613000006,223.62056250000023,space,14.481737399997655,None,223.83514379998087,223.87534299999243,223.87534299999243,223.87534299999243,223.87534299999243,228.4527153999952,228.4527153999952,228.9253636999929,space,0.4375902999890968,None,4,3.4148537000000942,5,2.783308300015051,5,4.551392000023043,,,,,,,,,,,,,,,,,,,,1,001,2025-09-02_16h03.17.492,TEST_eye_tracker,2024.1.5,None,2025-09-02 16h03.27.247390 +0200,
9,C:\Users\id05278\Desktop\MLLM matteo\Task and screenshots\experiment-20250603T085947Z-1-001\experiment\responses_files\prompt_9.xlsx,C:\Users\id05278\Desktop\MLLM matteo\Task and screenshots\experiment-20250603T085947Z-1-001\experiment\responses_files\img_prompt_9.jpg,Describe the overall appearance and atmosphere of the bedroom in the image.,9,9.2,"The bedroom in the image has a clean and minimalist appearance, featuring a large bed with white sheets and pillows, which gives it a fresh and inviting look. The room is well-lit, with a light on, creating a cozy atmosphere. The overall atmosphere of the bedroom is calm and relaxing, making it an ideal space for rest and rejuvenation.",4.333333333333333,Qwen-VL-Chat,0,5,5,8,0,1,1,1,228.95337020000443,,,,,,,,,,,,,,,,,,,,,,,,,,,228.92596849999973,Describe the overall appearance and atmosphere of the bedroom in the image.,"The bedroom in the image has a clean and minimalist appearance, featuring a large bed with white sheets and pillows, which gives it a fresh and inviting look. The room is well-lit, with a light on, creating a cozy atmosphere. The overall atmosphere of the bedroom is calm and relaxing, making it an ideal space for rest and rejuvenation.",228.95337020000443,229.95285380000132,229.95286610000767,229.98630789999152,241.98825609998312,space,11.991335400001844,None,242.1981783999945,242.23731019999832,242.23731019999832,242.23731019999832,242.23731019999832,245.08614259999013,245.08614259999013,245.42526269998052,space,0.3232834000082221,None,4,1.3851838999835309,4,2.0870850999781396,5,2.8224107999994885,,,,,,,,,,,,,,,,,,,,1,001,2025-09-02_16h03.17.492,TEST_eye_tracker,2024.1.5,None,2025-09-02 16h03.27.247390 +0200,
9,C:\Users\id05278\Desktop\MLLM matteo\Task and screenshots\experiment-20250603T085947Z-1-001\experiment\responses_files\prompt_9.xlsx,C:\Users\id05278\Desktop\MLLM matteo\Task and screenshots\experiment-20250603T085947Z-1-001\experiment\responses_files\img_prompt_9.jpg,Describe the overall appearance and atmosphere of the bedroom in the image.,,,0.888,,,0,5,5,8,,,,,,,,,,,,,,,,,,,,,,,,,,,,,,,,,Describe the overall appearance and atmosphere of the bedroom in the image.,0.888,,,,,,,,,,,,,,,,,,,,,,,,,,245.50475910000387,245.52032509999117,245.52032509999117,247.15296139998827,247.15296139998827,248.08859709999524,1,1.5817465000145603,space,0.9293067999824416,None,,,,,,,,,1,001,2025-09-02_16h03.17.492,TEST_eye_tracker,2024.1.5,None,2025-09-02 16h03.27.247390 +0200,
22,C:\Users\id05278\Desktop\MLLM matteo\Task and screenshots\experiment-20250603T085947Z-1-001\experiment\responses_files\prompt_22.xlsx,C:\Users\id05278\Desktop\MLLM matteo\Task and screenshots\experiment-20250603T085947Z-1-001\experiment\responses_files\img_prompt_22.jpg,What is the website mentioned in the image?,22,22.1,"The website mentioned in the image is "Google". It appears to be a search engine, and it has an interesting photo of a girl standing next to a flower with a blue sky behind her. There are also words written on the page that mention Google as well.",2,VisualGLM-6b,0,6,6,21,0,0,0,0,266.8797873999865,,,,,,,,,,,,,,,,248.15240019999328,248.16288200000417,248.65264169999864,248.65265529998578,248.68788409998524,248.68788409998524,248.68788409998524,266.42145649998565,space,17.707263300020713,None,266.8717999999935,What is the website mentioned in the image?,"The website mentioned in the image is "Google". It appears to be a search engine, and it has an interesting photo of a girl standing next to a flower with a blue sky behind her. There are also words written on the page that mention Google as well.",266.8797873999865,267.88623450000887,267.8862489000021,267.9201926999958,276.2545181000023,space,8.329345400008606,None,276.4628226000059,276.5023949999886,276.5023949999886,276.5023949999886,276.5023949999886,282.1195089999819,282.1195089999819,282.39208019999205,space,0.2590472000010777,None,2,1.0537525000108872,2,4.356179299997166,5,5.591163899982348,,,,,,,,,,,,,,,,,,,,1,001,2025-09-02_16h03.17.492,TEST_eye_tracker,2024.1.5,None,2025-09-02 16h03.27.247390 +0200,
22,C:\Users\id05278\Desktop\MLLM matteo\Task and screenshots\experiment-20250603T085947Z-1-001\experiment\responses_files\prompt_22.xlsx,C:\Users\id05278\Desktop\MLLM matteo\Task and screenshots\experiment-20250603T085947Z-1-001\experiment\responses_files\img_prompt_22.jpg,What is the website mentioned in the image?,22,22.2,The website mentioned in the image is www.tamilkavithaial.com.,4.333333333333333,Qwen-VL-Chat,0,6,6,21,0,1,1,1,282.41954249999253,,,,,,,,,,,,,,,,,,,,,,,,,,,282.39263519999804,What is the website mentioned in the image?,The website mentioned in the image is www.tamilkavithaial.com.,282.41954249999253,283.4196038999944,283.41961799998535,283.45293209998636,287.25354519998655,space,3.78130129998317,None,287.45921810000436,287.49946279998403,287.49946279998403,287.49946279998403,287.49946279998403,289.6197935999953,289.6197935999953,289.9592815999931,space,0.3103457000106573,None,5,0.5571629999903962,5,1.4268621999945026,5,2.0950362000148743,,,,,,,,,,,,,,,,,,,,1,001,2025-09-02_16h03.17.492,TEST_eye_tracker,2024.1.5,None,2025-09-02 16h03.27.247390 +0200,
22,C:\Users\id05278\Desktop\MLLM matteo\Task and screenshots\experiment-20250603T085947Z-1-001\experiment\responses_files\prompt_22.xlsx,C:\Users\id05278\Desktop\MLLM matteo\Task and screenshots\experiment-20250603T085947Z-1-001\experiment\responses_files\img_prompt_22.jpg,What is the website mentioned in the image?,,,0.888,,,0,6,6,21,,,,,,,,,,,,,,,,,,,,,,,,,,,,,,,,,What is the website mentioned in the image?,0.888,,,,,,,,,,,,,,,,,,,,,,,,,,290.0259388999839,290.0407283999957,290.0407283999957,291.0529311999853,291.0529311999853,291.255021399993,2,0.9599942000058945,space,0.18145090001053177,None,,,,,,,,,1,001,2025-09-02_16h03.17.492,TEST_eye_tracker,2024.1.5,None,2025-09-02 16h03.27.247390 +0200,
3,C:\Users\id05278\Desktop\MLLM matteo\Task and screenshots\experiment-20250603T085947Z-1-001\experiment\responses_files\prompt_3.xlsx,C:\Users\id05278\Desktop\MLLM matteo\Task and screenshots\experiment-20250603T085947Z-1-001\experiment\responses_files\img_prompt_3.jpg,What is the quote on the image suggesting?,3,3.1,"The quote on the image suggests that peace, poetry, and power are important aspects of life. It encourages people to appreciate these qualities and strive to incorporate them into their daily lives. The image features a clock with a rose and a quote, which can be interpreted as a reminder to find balance between the passage of time and the beauty of life. The rose symbolizes love and appreciation, while the clock represents the importance of time and its value in our lives. The combination of these elements in the image serves as a reminder to cherish the moments and make the most of our time on earth.",5,llava1.5-13b,0,7,7,2,0,0,0,0,320.865026399988,,,,,,,,,,,,,,,,291.3180089999805,291.3284626999812,291.8195405000006,291.8195642000064,291.8550779999932,291.8550779999932,291.8550779999932,320.55482469999697,space,28.691090200009057,None,320.85728769999696,What is the quote on the image suggesting?,"The quote on the image suggests that peace, poetry, and power are important aspects of life. It encourages people to appreciate these qualities and strive to incorporate them into their daily lives. The image features a clock with a rose and a quote, which can be interpreted as a reminder to find balance between the passage of time and the beauty of life. The rose symbolizes love and appreciation, while the clock represents the importance of time and its value in our lives. The combination of these elements in the image serves as a reminder to cherish the moments and make the most of our time on earth.",320.865026399988,321.85338200000115,321.8534033999895,321.8863580999896,338.9551703000034,space,17.058836099982727,None,339.167011499987,339.2079419000074,339.2079419000074,339.2079419000074,339.2079419000074,344.15285379998386,344.15285379998386,344.39270679999026,space,0.2245847000158392,None,2,0.7502064000000246,2,3.085173500003293,5,4.91981510000187,,,,,,,,,,,,,,,,,,,,1,001,2025-09-02_16h03.17.492,TEST_eye_tracker,2024.1.5,None,2025-09-02 16h03.27.247390 +0200,
3,C:\Users\id05278\Desktop\MLLM matteo\Task and screenshots\experiment-20250603T085947Z-1-001\experiment\responses_files\prompt_3.xlsx,C:\Users\id05278\Desktop\MLLM matteo\Task and screenshots\experiment-20250603T085947Z-1-001\experiment\responses_files\img_prompt_3.jpg,What is the quote on the image suggesting?,3,3.2,"The quote on the image, "Peace, Poetry, and Power," suggests that the person who created the image values peace, poetry, and power in their life. It could be a personal mantra or a statement expressing their beliefs and aspirations.",2.666666666666667,Qwen-VL-Chat,0,7,7,2,0,1,1,1,344.4195311999938,,,,,,,,,,,,,,,,,,,,,,,,,,,344.3933027999883,What is the quote on the image suggesting?,"The quote on the image, "Peace, Poetry, and Power," suggests that the person who created the image values peace, poetry, and power in their life. It could be a personal mantra or a statement expressing their beliefs and aspirations.",344.4195311999938,345.41976649998105,345.4197814000072,345.4546447999892,352.5538380999933,space,7.082904899987625,None,352.76315349998185,352.80201029998716,352.80201029998716,352.80201029998716,352.80201029998716,357.9863350999949,357.9863350999949,358.25894430000335,space,0.23972690000664443,None,2,0.6866165999963414,2,2.0560312000161503,5,5.158106599992607,,,,,,,,,,,,,,,,,,,,1,001,2025-09-02_16h03.17.492,TEST_eye_tracker,2024.1.5,None,2025-09-02 16h03.27.247390 +0200,
3,C:\Users\id05278\Desktop\MLLM matteo\Task and screenshots\experiment-20250603T085947Z-1-001\experiment\responses_files\prompt_3.xlsx,C:\Users\id05278\Desktop\MLLM matteo\Task and screenshots\experiment-20250603T085947Z-1-001\experiment\responses_files\img_prompt_3.jpg,What is the quote on the image suggesting?,,,0.888,,,0,7,7,2,,,,,,,,,,,,,,,,,,,,,,,,,,,,,,,,,What is the quote on the image suggesting?,0.888,,,,,,,,,,,,,,,,,,,,,,,,,,358.33123300000443,358.34592839999823,358.34592839999823,360.0868606999866,360.0868606999866,362.25581549998606,1,1.6891935000021476,space,2.138602199993329,None,,,,,,,,,1,001,2025-09-02_16h03.17.492,TEST_eye_tracker,2024.1.5,None,2025-09-02 16h03.27.247390 +0200,
30,C:\Users\id05278\Desktop\MLLM matteo\Task and screenshots\experiment-20250603T085947Z-1-001\experiment\responses_files\prompt_30.xlsx,C:\Users\id05278\Desktop\MLLM matteo\Task and screenshots\experiment-20250603T085947Z-1-001\experiment\responses_files\img_prompt_30.jpg,What is the main topic of the report mentioned in the image?,30,30.1,"The main topic of the report mentioned in the image is "Access to Justice for Internally Displaced and Ethnic Minority Women." The report appears to be an analytical study conducted in 2015, focusing on the challenges and issues faced by women who are internally displaced or belong to ethnic minorities in accessing justice.",4.666666666666667,gpt-4v,0,8,8,29,0,0,0,0,373.12305090000154,,,,,,,,,,,,,,,,362.3239949999843,362.33476349999546,362.82023939999635,362.82025359998806,362.85447739998926,362.85447739998926,362.85447739998926,372.8552726999915,space,9.971090100007132,None,373.1152974999859,What is the main topic of the report mentioned in the image?,"The main topic of the report mentioned in the image is "Access to Justice for Internally Displaced and Ethnic Minority Women." The report appears to be an analytical study conducted in 2015, focusing on the challenges and issues faced by women who are internally displaced or belong to ethnic minorities in accessing justice.",373.12305090000154,374.1198871000088,374.1199018000043,374.1541767999879,382.8204573999974,space,8.647932599997148,None,383.0299175999826,383.0695011999924,383.0695011999924,383.0695011999924,383.0695011999924,387.1206592999806,387.1206592999806,390.19245349999983,space,3.049200999987079,None,5,0.9535347000055481,5,2.588887199992314,5,4.024348999984795,,,,,,,,,,,,362.85447739998926,,,,,,,,1,001,2025-09-02_16h03.17.492,TEST_eye_tracker,2024.1.5,None,2025-09-02 16h03.27.247390 +0200,
30,C:\Users\id05278\Desktop\MLLM matteo\Task and screenshots\experiment-20250603T085947Z-1-001\experiment\responses_files\prompt_30.xlsx,C:\Users\id05278\Desktop\MLLM matteo\Task and screenshots\experiment-20250603T085947Z-1-001\experiment\responses_files\img_prompt_30.jpg,What is the main topic of the report mentioned in the image?,30,30.2,"The purple color image shows a woman standing on top of a mountain, holding a book. She has long hair and wears a black dress with white sleeves. The background appears to be a dark forest or a deep blue sky.",2.333333333333333,VisualGLM-6b,0,8,8,29,0,1,1,1,390.2195938999939,,,,,,,,,,,,,,,,,,,,,,,,,,,390.1930885000038,What is the main topic of the report mentioned in the image?,"The purple color image shows a woman standing on top of a mountain, holding a book. She has long hair and wears a black dress with white sleeves. The background appears to be a dark forest or a deep blue sky.",390.2195938999939,391.21993540000403,391.2199486999889,391.2542925000016,396.78806140000233,space,5.500553799996851,None,396.99578130000737,397.0353564999823,397.0353564999823,397.0353564999823,397.0353564999823,401.98636660000193,401.98636660000193,402.59251749998657,space,0.5833271000010427,None,1,3.7211501999991015,1,2.05706530000316,5,4.925302099989494,,,,,,,,,,,,,,,,,,,,1,001,2025-09-02_16h03.17.492,TEST_eye_tracker,2024.1.5,None,2025-09-02 16h03.27.247390 +0200,
30,C:\Users\id05278\Desktop\MLLM matteo\Task and screenshots\experiment-20250603T085947Z-1-001\experiment\responses_files\prompt_30.xlsx,C:\Users\id05278\Desktop\MLLM matteo\Task and screenshots\experiment-20250603T085947Z-1-001\experiment\responses_files\img_prompt_30.jpg,What is the main topic of the report mentioned in the image?,,,0.888,,,0,8,8,29,,,,,,,,,,,,,,,,,,,,,,,,,,,,,,,,,What is the main topic of the report mentioned in the image?,0.888,,,,,,,,,,,,,,,,,,,,,,,,,,402.6695238999964,402.6839798000001,402.6839798000001,404.35307459998876,404.35307459998876,404.55575979998684,1,1.6169684999913443,space,0.18493889999808744,None,,,,,,,,,1,001,2025-09-02_16h03.17.492,TEST_eye_tracker,2024.1.5,None,2025-09-02 16h03.27.247390 +0200,
21,C:\Users\id05278\Desktop\MLLM matteo\Task and screenshots\experiment-20250603T085947Z-1-001\experiment\responses_files\prompt_21.xlsx,C:\Users\id05278\Desktop\MLLM matteo\Task and screenshots\experiment-20250603T085947Z-1-001\experiment\responses_files\img_prompt_21.jpg,Can you find the flock of birds flying over the cloudy sky?,21,21.1,"There are no birds or clouds visible in the photo you provided. The image shows a toy figure of a surfer on a surfboard against a clear blue sky. If you're looking for a photo with birds and clouds, you may want to try a different image or specify another scene you'd like to see.",1.333333333333333,gpt-4v,0,9,9,20,0,0,0,0,412.7840147999814,,,,,,,,,,,,,,,,404.6198952999839,404.6313380000065,405.12048739998136,405.12050419999287,405.1556272000016,405.1556272000016,405.1556272000016,412.42170770000666,space,7.254245599993737,None,412.775882499991,Can you find the flock of birds flying over the cloudy sky?,"There are no birds or clouds visible in the photo you provided. The image shows a toy figure of a surfer on a surfboard against a clear blue sky. If you're looking for a photo with birds and clouds, you may want to try a different image or specify another scene you'd like to see.",412.7840147999814,413.78637499999604,413.78639180000755,413.8197336999874,427.18749779998325,space,13.342511700000614,None,427.38925700000254,427.4299534999882,427.4299534999882,427.4299534999882,427.4299534999882,433.952984500007,433.952984500007,434.4923688999843,space,0.5131283000227995,None,5,0.9945773000072222,5,4.397007999999914,5,6.499070899997605,,,,,,,,,,,,,,,,,,,,1,001,2025-09-02_16h03.17.492,TEST_eye_tracker,2024.1.5,None,2025-09-02 16h03.27.247390 +0200,
21,C:\Users\id05278\Desktop\MLLM matteo\Task and screenshots\experiment-20250603T085947Z-1-001\experiment\responses_files\prompt_21.xlsx,C:\Users\id05278\Desktop\MLLM matteo\Task and screenshots\experiment-20250603T085947Z-1-001\experiment\responses_files\img_prompt_21.jpg,Can you find the flock of birds flying over the cloudy sky?,21,21.2,"No, there are no birds in the image. The image features a man on a surfboard, which is placed on a pole or a stick, and he is riding it in the air. The sky in the image is blue and cloudy, but there are no birds visible. The focus of the image is on the man and his surfboard, showcasing his skill and balance as he performs his trick. The presence of a surfboard and a man riding it on a stick or pole suggests that this could be a creative or artistic representation of surfing, or perhaps a unique form of entertainment or advertisement. The image captures the essence of surfing, highlighting the excitement and thrill that comes with the sport, as well as the skill and agility required to perform such a feat.",2.333333333333333,LLaVA-RLHF-13b-v1.5-336,0,9,9,20,0,1,1,1,434.5196986999945,,,,,,,,,,,,,,,,,,,,,,,,,,,434.49291830000584,Can you find the flock of birds flying over the cloudy sky?,"No, there are no birds in the image. The image features a man on a surfboard, which is placed on a pole or a stick, and he is riding it in the air. The sky in the image is blue and cloudy, but there are no birds visible. The focus of the image is on the man and his surfboard, showcasing his skill and balance as he performs his trick. The presence of a surfboard and a man riding it on a stick or pole suggests that this could be a creative or artistic representation of surfing, or perhaps a unique form of entertainment or advertisement. The image captures the essence of surfing, highlighting the excitement and thrill that comes with the sport, as well as the skill and agility required to perform such a feat.",434.5196986999945,435.51990700000897,435.5199214000022,435.55449640000006,460.0211505999905,space,24.45521519999602,None,460.2412176000071,460.28247420000844,460.28247420000844,460.28247420000844,460.28247420000844,462.9528242999804,462.9528242999804,463.55944789998466,space,0.5770497999910731,None,4,0.7091743999917526,4,1.6769863000081386,5,2.646625800000038,,,,,,,,,,,,,,,,,,,,1,001,2025-09-02_16h03.17.492,TEST_eye_tracker,2024.1.5,None,2025-09-02 16h03.27.247390 +0200,
21,C:\Users\id05278\Desktop\MLLM matteo\Task and screenshots\experiment-20250603T085947Z-1-001\experiment\responses_files\prompt_21.xlsx,C:\Users\id05278\Desktop\MLLM matteo\Task and screenshots\experiment-20250603T085947Z-1-001\experiment\responses_files\img_prompt_21.jpg,Can you find the flock of birds flying over the cloudy sky?,,,0.888,,,0,9,9,20,,,,,,,,,,,,,,,,,,,,,,,,,,,,,,,,,Can you find the flock of birds flying over the cloudy sky?,0.888,,,,,,,,,,,,,,,,,,,,,,,,,,463.65144819999114,463.6664856999996,463.6664856999996,465.08649210000294,465.08649210000294,465.42579819998355,1,1.3687549000023864,space,0.30710620002355427,None,,,,,,,,,1,001,2025-09-02_16h03.17.492,TEST_eye_tracker,2024.1.5,None,2025-09-02 16h03.27.247390 +0200,
17,C:\Users\id05278\Desktop\MLLM matteo\Task and screenshots\experiment-20250603T085947Z-1-001\experiment\responses_files\prompt_17.xlsx,C:\Users\id05278\Desktop\MLLM matteo\Task and screenshots\experiment-20250603T085947Z-1-001\experiment\responses_files\img_prompt_17.jpg,What is the full name of the institute mentioned in the image?,17,17.2,"The full name of this Institute is "Juilliard University". It was established by a group of students from different universities and institutions, including Juilliard School of Music, where they were studying music theory and composition.",2.333333333333333,VisualGLM-6b,0,10,10,16,0,0,0,1,477.9277260999952,,,,,,,,,,,,,,,,465.49322750000283,465.5023155999952,465.98702349999803,465.9870399000065,466.02135409999755,466.02135409999755,466.02135409999755,477.62176169999293,space,11.572832700010622,None,477.91912720000255,What is the full name of the institute mentioned in the image?,"The full name of this Institute is "Juilliard University". It was established by a group of students from different universities and institutions, including Juilliard School of Music, where they were studying music theory and composition.",477.9277260999952,478.91985340000247,478.9198689000041,478.95443270000396,486.7540808999911,space,7.774909100000514,None,486.96065100000123,487.0002312999859,487.0002312999859,487.0002312999859,487.0002312999859,490.15303749998566,490.15303749998566,490.39249989998643,space,0.2169483999896329,None,3,1.7563442999962717,3,2.2928194999985863,5,3.127312199998414,,,,,,,,,,,,466.02135409999755,,,,,,,,1,001,2025-09-02_16h03.17.492,TEST_eye_tracker,2024.1.5,None,2025-09-02 16h03.27.247390 +0200,
17,C:\Users\id05278\Desktop\MLLM matteo\Task and screenshots\experiment-20250603T085947Z-1-001\experiment\responses_files\prompt_17.xlsx,C:\Users\id05278\Desktop\MLLM matteo\Task and screenshots\experiment-20250603T085947Z-1-001\experiment\responses_files\img_prompt_17.jpg,What is the full name of the institute mentioned in the image?,17,17.1,Julius Kuhn-Institutt,3.333333333333333,fuyu-8b,0,10,10,16,0,1,1,0,490.4198349000071,,,,,,,,,,,,,,,,,,,,,,,,,,,490.39307580000605,What is the full name of the institute mentioned in the image?,Julius Kuhn-Institutt,490.4198349000071,491.42000529999495,491.4200203999935,491.4543803999841,494.887416499987,space,3.40291839998099,None,495.09155219999957,495.13020179999876,495.13020179999876,495.13020179999876,495.13020179999876,497.3530667999876,497.3530667999876,497.5590250999958,space,0.16892860000371002,None,4,0.8256779999937862,4,1.393760899984045,5,2.196371799975168,,,,,,,,,,,,,,,,,,,,1,001,2025-09-02_16h03.17.492,TEST_eye_tracker,2024.1.5,None,2025-09-02 16h03.27.247390 +0200,
17,C:\Users\id05278\Desktop\MLLM matteo\Task and screenshots\experiment-20250603T085947Z-1-001\experiment\responses_files\prompt_17.xlsx,C:\Users\id05278\Desktop\MLLM matteo\Task and screenshots\experiment-20250603T085947Z-1-001\experiment\responses_files\img_prompt_17.jpg,What is the full name of the institute mentioned in the image?,,,0.888,,,0,10,10,16,,,,,,,,,,,,,,,,,,,,,,,,,,,,,,,,,What is the full name of the institute mentioned in the image?,0.888,,,,,,,,,,,,,,,,,,,,,,,,,,497.63908049999736,497.6538287999865,497.6538287999865,498.6864896999905,498.6864896999905,498.7893108999997,2,0.9806930999911856,space,0.09940320000168867,None,,,,,,,,,1,001,2025-09-02_16h03.17.492,TEST_eye_tracker,2024.1.5,None,2025-09-02 16h03.27.247390 +0200,
11,C:\Users\id05278\Desktop\MLLM matteo\Task and screenshots\experiment-20250603T085947Z-1-001\experiment\responses_files\prompt_11.xlsx,C:\Users\id05278\Desktop\MLLM matteo\Task and screenshots\experiment-20250603T085947Z-1-001\experiment\responses_files\img_prompt_11.jpg,What color is the predominant airplane on display?,11,11.1,The predominant airplane on display is blue.,2,llava1.5-13b,0,11,11,10,0,0,0,0,501.3287150999822,,,,,,,,,,,,,,,,498.85467169998446,498.8653548999864,499.3537684000039,499.3537809999834,499.38828260000446,499.38828260000446,499.38828260000446,500.88868259999435,space,1.4852483000140637,None,501.31949480000185,What color is the predominant airplane on display?,The predominant airplane on display is blue.,501.3287150999822,502.31993460000376,502.31994549999945,502.353200499987,503.787394199986,space,1.4171606999880169,None,503.9851410999836,504.0242598000041,504.0242598000041,504.0242598000041,504.0242598000041,506.4864954999939,506.4864954999939,507.392735100002,space,0.891518200020073,None,4,0.6987321000196971,4,1.5999869000224862,5,2.435899000003701,,,,,,,,,,,,499.38828260000446,,,,,,,,1,001,2025-09-02_16h03.17.492,TEST_eye_tracker,2024.1.5,None,2025-09-02 16h03.27.247390 +0200,
11,C:\Users\id05278\Desktop\MLLM matteo\Task and screenshots\experiment-20250603T085947Z-1-001\experiment\responses_files\prompt_11.xlsx,C:\Users\id05278\Desktop\MLLM matteo\Task and screenshots\experiment-20250603T085947Z-1-001\experiment\responses_files\img_prompt_11.jpg,What color is the predominant airplane on display?,11,11.2,"The predominant airplane on display is blue, with additional stripes in red, white, and green.",3.333333333333333,gpt-4v,0,11,11,10,0,1,1,1,507.41980199998943,,,,,,,,,,,,,,,,,,,,,,,,,,,507.39331280000624,What color is the predominant airplane on display?,"The predominant airplane on display is blue, with additional stripes in red, white, and green.",507.41980199998943,508.41988599998876,508.4199210999941,508.4531583999924,509.4206858999969,space,0.9645970000128727,None,509.61342760000844,509.6516904000018,509.6516904000018,509.6516904000018,509.6516904000018,512.2863641000004,512.2863641000004,512.526037899981,space,0.21082470001420006,None,5,0.9370733999821823,5,1.5395137000014074,5,2.607748000009451,,,,,,,,,,,,,,,,,,,,1,001,2025-09-02_16h03.17.492,TEST_eye_tracker,2024.1.5,None,2025-09-02 16h03.27.247390 +0200,
11,C:\Users\id05278\Desktop\MLLM matteo\Task and screenshots\experiment-20250603T085947Z-1-001\experiment\responses_files\prompt_11.xlsx,C:\Users\id05278\Desktop\MLLM matteo\Task and screenshots\experiment-20250603T085947Z-1-001\experiment\responses_files\img_prompt_11.jpg,What color is the predominant airplane on display?,,,0.888,,,0,11,11,10,,,,,,,,,,,,,,,,,,,,,,,,,,,,,,,,,What color is the predominant airplane on display?,0.888,,,,,,,,,,,,,,,,,,,,,,,,,,512.6152669999865,512.6304330999847,512.6304330999847,513.820032699994,513.820032699994,514.7223363000085,2,1.1377094000054058,space,0.8862316999875475,None,,,,,,,,,1,001,2025-09-02_16h03.17.492,TEST_eye_tracker,2024.1.5,None,2025-09-02 16h03.27.247390 +0200,
20,C:\Users\id05278\Desktop\MLLM matteo\Task and screenshots\experiment-20250603T085947Z-1-001\experiment\responses_files\prompt_20.xlsx,C:\Users\id05278\Desktop\MLLM matteo\Task and screenshots\experiment-20250603T085947Z-1-001\experiment\responses_files\img_prompt_20.jpg,What type of furniture can you see in this image?,20,20.1,"In the image, I can see a variety of furniture, including a couch, a chair, and a refrigerator. The couch is located in the living room, while the chair is positioned near the dining table. The refrigerator is situated in the kitchen area. Additionally, there is a TV in the living room, which adds to the cozy and functional setup of the space. The presence of these items indicates that the room is designed to accommodate both relaxation and dining activities, making it a versatile and comfortable living space.",2.333333333333333,LLaVA-RLHF-13b-v1.5-336,0,12,12,19,0,0,0,0,517.8112464000005,,,,,,,,,,,,,,,,514.7864351999888,514.7962546999916,515.2866667000053,515.2866801999917,515.3216328999843,515.3216328999843,515.3216328999843,517.321970799996,space,1.9926101999881212,None,517.8032742000069,What type of furniture can you see in this image?,"In the image, I can see a variety of furniture, including a couch, a chair, and a refrigerator. The couch is located in the living room, while the chair is positioned near the dining table. The refrigerator is situated in the kitchen area. Additionally, there is a TV in the living room, which adds to the cozy and functional setup of the space. The presence of these items indicates that the room is designed to accommodate both relaxation and dining activities, making it a versatile and comfortable living space.",517.8112464000005,518.8197037999926,518.8197159999982,518.8543918000069,521.4874294000037,space,2.6199677999829873,None,521.6890439999988,521.7285880999989,521.7285880999989,521.7285880999989,521.7285880999989,523.7532978999952,523.7532978999952,523.9924037999881,space,0.2247741000028327,None,5,0.694616099994164,5,1.2300248999963515,5,1.9989952000032645,,,,,,,,,,,,,,,,,,,,1,001,2025-09-02_16h03.17.492,TEST_eye_tracker,2024.1.5,None,2025-09-02 16h03.27.247390 +0200,
20,C:\Users\id05278\Desktop\MLLM matteo\Task and screenshots\experiment-20250603T085947Z-1-001\experiment\responses_files\prompt_20.xlsx,C:\Users\id05278\Desktop\MLLM matteo\Task and screenshots\experiment-20250603T085947Z-1-001\experiment\responses_files\img_prompt_20.jpg,What type of furniture can you see in this image?,20,20.2,"In this image, I can see a couch, a chair, and a refrigerator. The couch is brown, and the chair is black. The refrigerator is white, and it is placed in the kitchen area.",3.666666666666667,LLaVA-RLHF-7b-v1.5-224,0,12,12,19,0,1,1,1,524.0200218999817,,,,,,,,,,,,,,,,,,,,,,,,,,,523.9929764999833,What type of furniture can you see in this image?,"In this image, I can see a couch, a chair, and a refrigerator. The couch is brown, and the chair is black. The refrigerator is white, and it is placed in the kitchen area.",524.0200218999817,525.0198797000048,525.0198920999828,525.0531413999852,528.9873520999972,space,3.924811100005172,None,529.1812631000066,529.2200277000084,529.2200277000084,529.2200277000084,529.2200277000084,535.4864628000068,535.4864628000068,535.7262568000006,space,0.21932580001885071,None,3,3.7686386999848764,4,5.3381416000192985,5,6.23991369997384,,,,,,,,,,,,,,,,,,,,1,001,2025-09-02_16h03.17.492,TEST_eye_tracker,2024.1.5,None,2025-09-02 16h03.27.247390 +0200,
20,C:\Users\id05278\Desktop\MLLM matteo\Task and screenshots\experiment-20250603T085947Z-1-001\experiment\responses_files\prompt_20.xlsx,C:\Users\id05278\Desktop\MLLM matteo\Task and screenshots\experiment-20250603T085947Z-1-001\experiment\responses_files\img_prompt_20.jpg,What type of furniture can you see in this image?,,,0.888,,,0,12,12,19,,,,,,,,,,,,,,,,,,,,,,,,,,,,,,,,,What type of furniture can you see in this image?,0.888,,,,,,,,,,,,,,,,,,,,,,,,,,535.8169607000018,535.8321919000009,535.8321919000009,538.2865536999889,538.2865536999889,538.5224081999913,1,2.4028718999761622,space,0.227590099995723,None,,,,,,,,,1,001,2025-09-02_16h03.17.492,TEST_eye_tracker,2024.1.5,None,2025-09-02 16h03.27.247390 +0200,
27,C:\Users\id05278\Desktop\MLLM matteo\Task and screenshots\experiment-20250603T085947Z-1-001\experiment\responses_files\prompt_27.xlsx,C:\Users\id05278\Desktop\MLLM matteo\Task and screenshots\experiment-20250603T085947Z-1-001\experiment\responses_files\img_prompt_27.jpg,What is the possible theme of this image?,27,27.1,"The possible theme of this image could be a casual meal, as it features two plates with different dishes on them. One plate contains a sandwich and fries while another has a salad and a side dish like rice or beans. These dishes are served in cups and bowls on white dining tables, which suggests that they might be part of an evening gathering or social event where people enjoy their meals together.",4.333333333333333,VisualGLM-6b,0,13,13,26,0,0,0,0,552.614175900002,,,,,,,,,,,,,,,,538.5882656000031,538.6003311999957,539.086947600008,539.0869616999989,539.1225741999806,539.1225741999806,539.1225741999806,552.0885282999952,space,12.959515700000338,None,552.6060168999829,What is the possible theme of this image?,"The possible theme of this image could be a casual meal, as it features two plates with different dishes on them. One plate contains a sandwich and fries while another has a salad and a side dish like rice or beans. These dishes are served in cups and bowls on white dining tables, which suggests that they might be part of an evening gathering or social event where people enjoy their meals together.",552.614175900002,553.586606900004,553.5866221000033,553.6210544999922,568.5542591999983,space,14.92446859998745,None,568.7670516000071,568.8065569000028,568.8065569000028,568.8065569000028,568.8065569000028,572.9531938,572.9531938,576.692549600004,space,3.729255899990676,None,3,1.4829770999785978,4,6.11861149998731,5,4.121288399997866,,,,,,,,,,,,539.1225741999806,,,,,,,,1,001,2025-09-02_16h03.17.492,TEST_eye_tracker,2024.1.5,None,2025-09-02 16h03.27.247390 +0200,
27,C:\Users\id05278\Desktop\MLLM matteo\Task and screenshots\experiment-20250603T085947Z-1-001\experiment\responses_files\prompt_27.xlsx,C:\Users\id05278\Desktop\MLLM matteo\Task and screenshots\experiment-20250603T085947Z-1-001\experiment\responses_files\img_prompt_27.jpg,What is the possible theme of this image?,27,27.2,"The image appears to be centered around a meal at a restaurant, featuring what looks like a sandwich possibly with pulled pork, served with French fries and a side of coleslaw, accompanied by a small bowl of sauce. On the other plate, there seems to be a rice dish with vegetables and grilled chicken breast, served with slices of toasted bread. The drinks visible are likely soft drinks. The theme suggests a casual dining experience, possibly at an American-style restaurant or diner, with a focus on hearty, comfort food dishes.",3.666666666666667,gpt-4v,0,13,13,26,0,1,1,1,576.7200573000009,,,,,,,,,,,,,,,,,,,,,,,,,,,576.6932239999878,What is the possible theme of this image?,"The image appears to be centered around a meal at a restaurant, featuring what looks like a sandwich possibly with pulled pork, served with French fries and a side of coleslaw, accompanied by a small bowl of sauce. On the other plate, there seems to be a rice dish with vegetables and grilled chicken breast, served with slices of toasted bread. The drinks visible are likely soft drinks. The theme suggests a casual dining experience, possibly at an American-style restaurant or diner, with a focus on hearty, comfort food dishes.",576.7200573000009,577.7200838999997,577.7200979999907,577.7534829000069,592.4545352999994,space,14.681467699992936,None,592.6714977000083,592.7116266000085,592.7116266000085,592.7116266000085,592.7116266000085,595.0867299000092,595.0867299000092,595.5924541999993,space,0.4671495000075083,None,5,0.7120023000170477,5,1.6478751999966335,5,2.3492097000125796,,,,,,,,,,,,,,,,,,,,1,001,2025-09-02_16h03.17.492,TEST_eye_tracker,2024.1.5,None,2025-09-02 16h03.27.247390 +0200,
27,C:\Users\id05278\Desktop\MLLM matteo\Task and screenshots\experiment-20250603T085947Z-1-001\experiment\responses_files\prompt_27.xlsx,C:\Users\id05278\Desktop\MLLM matteo\Task and screenshots\experiment-20250603T085947Z-1-001\experiment\responses_files\img_prompt_27.jpg,What is the possible theme of this image?,,,0.888,,,0,13,13,26,,,,,,,,,,,,,,,,,,,,,,,,,,,,,,,,,What is the possible theme of this image?,0.888,,,,,,,,,,,,,,,,,,,,,,,,,,595.6910436000035,595.7061216000002,595.7061216000002,596.6199657999969,596.6199657999969,596.7560642999888,2,0.8621753999905195,space,0.12646309999399818,None,,,,,,,,,1,001,2025-09-02_16h03.17.492,TEST_eye_tracker,2024.1.5,None,2025-09-02 16h03.27.247390 +0200,
16,C:\Users\id05278\Desktop\MLLM matteo\Task and screenshots\experiment-20250603T085947Z-1-001\experiment\responses_files\prompt_16.xlsx,C:\Users\id05278\Desktop\MLLM matteo\Task and screenshots\experiment-20250603T085947Z-1-001\experiment\responses_files\img_prompt_16.jpg,What is the quote written in the image?,16,16.1,The quote written in the image is: "forgive yourself for not knowing what you didn't know before you lived through it.",5,LLaVA-RLHF-7b-v1.5-224,0,14,14,15,0,0,0,0,606.340460300009,,,,,,,,,,,,,,,,596.8221248000045,596.8317183000036,597.3206562999985,597.3206707999925,597.355192499992,597.355192499992,597.355192499992,605.8890018000093,space,8.510461199999554,None,606.3316336999997,What is the quote written in the image?,The quote written in the image is: "forgive yourself for not knowing what you didn't know before you lived through it.",606.340460300009,607.320178599999,607.3201917999831,607.3533035999862,611.020732200006,space,3.657708399987314,None,611.22549479999,611.2641561999917,611.2641561999917,611.2641561999917,611.2641561999917,613.4535464000073,613.4535464000073,614.3590519999852,space,0.8838676000013947,None,5,0.924921900004847,5,1.3936260999762453,5,2.162733199977083,,,,,,,,,,,,597.355192499992,,,,,,,,1,001,2025-09-02_16h03.17.492,TEST_eye_tracker,2024.1.5,None,2025-09-02 16h03.27.247390 +0200,
16,C:\Users\id05278\Desktop\MLLM matteo\Task and screenshots\experiment-20250603T085947Z-1-001\experiment\responses_files\prompt_16.xlsx,C:\Users\id05278\Desktop\MLLM matteo\Task and screenshots\experiment-20250603T085947Z-1-001\experiment\responses_files\img_prompt_16.jpg,What is the quote written in the image?,16,16.2,"The quote in the image reads: "Forgive yourself for not knowing what you didn't know before you lived through it. Honor your path. Trust your journey. Learn, grow, evolve, become." It is attributed to someone named Cinda Crawford.",3,gpt-4v,0,14,14,15,0,1,1,1,614.3867425000062,,,,,,,,,,,,,,,,,,,,,,,,,,,614.3596384999983,What is the quote written in the image?,"The quote in the image reads: "Forgive yourself for not knowing what you didn't know before you lived through it. Honor your path. Trust your journey. Learn, grow, evolve, become." It is attributed to someone named Cinda Crawford.",614.3867425000062,615.386711500003,615.3867249999894,615.4199226000055,623.8209190999914,space,8.397339399991324,None,624.0336680999899,624.072700699995,624.072700699995,624.072700699995,624.072700699995,626.1201197000046,626.1201197000046,626.5592957999907,space,0.40915639998274855,None,5,0.64987170000677,5,1.318492399994284,5,2.0214785000134725,,,,,,,,,,,,,,,,,,,,1,001,2025-09-02_16h03.17.492,TEST_eye_tracker,2024.1.5,None,2025-09-02 16h03.27.247390 +0200,
16,C:\Users\id05278\Desktop\MLLM matteo\Task and screenshots\experiment-20250603T085947Z-1-001\experiment\responses_files\prompt_16.xlsx,C:\Users\id05278\Desktop\MLLM matteo\Task and screenshots\experiment-20250603T085947Z-1-001\experiment\responses_files\img_prompt_16.jpg,What is the quote written in the image?,,,0.888,,,0,14,14,15,,,,,,,,,,,,,,,,,,,,,,,,,,,,,,,,,What is the quote written in the image?,0.888,,,,,,,,,,,,,,,,,,,,,,,,,,626.6549003999971,626.6704601999954,626.6704601999954,627.253416099993,627.253416099993,627.5558434999839,2,0.5315560000017285,space,0.29299750001518987,None,,,,,,,,,1,001,2025-09-02_16h03.17.492,TEST_eye_tracker,2024.1.5,None,2025-09-02 16h03.27.247390 +0200,
13,C:\Users\id05278\Desktop\MLLM matteo\Task and screenshots\experiment-20250603T085947Z-1-001\experiment\responses_files\prompt_13.xlsx,C:\Users\id05278\Desktop\MLLM matteo\Task and screenshots\experiment-20250603T085947Z-1-001\experiment\responses_files\img_prompt_13.jpg,What is the size of the bowl in the image?,13,13.1,The bowl in the image is small.,2.333333333333333,llava1.5-7b,0,15,15,12,0,0,0,0,637.0582099999883,,,,,,,,,,,,,,,,627.6252848999866,627.635291899991,628.1205390999967,628.1205521000084,628.1548903000075,628.1548903000075,628.1548903000075,636.6888389999804,space,8.519392600021092,None,637.0501393000013,What is the size of the bowl in the image?,The bowl in the image is small.,637.0582099999883,638.0534888999828,638.0535011999891,638.086861799995,641.5879528000078,space,3.4745383999834303,None,641.792212100001,641.8319184999855,641.8319184999855,641.8319184999855,641.8319184999855,646.2868092999852,646.2868092999852,646.6597597000073,space,0.36349869999685325,None,3,1.3584146999928635,4,3.6956309000088368,5,4.430013399978634,,,,,,,,,,,,628.1548903000075,,,,,,,,1,001,2025-09-02_16h03.17.492,TEST_eye_tracker,2024.1.5,None,2025-09-02 16h03.27.247390 +0200,
13,C:\Users\id05278\Desktop\MLLM matteo\Task and screenshots\experiment-20250603T085947Z-1-001\experiment\responses_files\prompt_13.xlsx,C:\Users\id05278\Desktop\MLLM matteo\Task and screenshots\experiment-20250603T085947Z-1-001\experiment\responses_files\img_prompt_13.jpg,What is the size of the bowl in the image?,13,13.2,"The bowl in the image contains miniature items, as indicated by the comparison with the penny. To provide an accurate estimate of the bowl's size, I would need to know the dimensions of the coin, which appears to be a U.S. penny. U.S. pennies have a diameter of 0.75 inches (19.05 mm). By comparing the bowl with the penny, we can visually estimate that the bowl is slightly more than twice the diameter of the penny, making the bowl approximately 1.5 to 2 inches in diameter. However, this is a rough estimate, and the actual size could vary.",3.333333333333333,gpt-4v,0,15,15,12,0,1,1,1,646.6867490999866,,,,,,,,,,,,,,,,,,,,,,,,,,,646.6604207000055,What is the size of the bowl in the image?,"The bowl in the image contains miniature items, as indicated by the comparison with the penny. To provide an accurate estimate of the bowl's size, I would need to know the dimensions of the coin, which appears to be a U.S. penny. U.S. pennies have a diameter of 0.75 inches (19.05 mm). By comparing the bowl with the penny, we can visually estimate that the bowl is slightly more than twice the diameter of the penny, making the bowl approximately 1.5 to 2 inches in diameter. However, this is a rough estimate, and the actual size could vary.",646.6867490999866,647.6868333999882,647.6868466000014,647.7214648000081,662.2879833999905,space,14.537503900006413,None,662.5046268999868,662.5449993000075,662.5449993000075,662.5449993000075,662.5449993000075,665.786820999987,665.786820999987,666.092999799992,space,0.2786883999942802,None,5,0.7120045000046957,5,1.4808503999956883,5,3.2167985000123736,,,,,,,,,,,,,,,,,,,,1,001,2025-09-02_16h03.17.492,TEST_eye_tracker,2024.1.5,None,2025-09-02 16h03.27.247390 +0200,
13,C:\Users\id05278\Desktop\MLLM matteo\Task and screenshots\experiment-20250603T085947Z-1-001\experiment\responses_files\prompt_13.xlsx,C:\Users\id05278\Desktop\MLLM matteo\Task and screenshots\experiment-20250603T085947Z-1-001\experiment\responses_files\img_prompt_13.jpg,What is the size of the bowl in the image?,,,0.888,,,0,15,15,12,,,,,,,,,,,,,,,,,,,,,,,,,,,,,,,,,What is the size of the bowl in the image?,0.888,,,,,,,,,,,,,,,,,,,,,,,,,,666.2020604999852,666.2172816999955,666.2172816999955,667.3201140000019,667.3201140000019,667.3892329999944,2,1.051476399996318,space,0.04940809999243356,None,,,,,,,,,1,001,2025-09-02_16h03.17.492,TEST_eye_tracker,2024.1.5,None,2025-09-02 16h03.27.247390 +0200,
28,C:\Users\id05278\Desktop\MLLM matteo\Task and screenshots\experiment-20250603T085947Z-1-001\experiment\responses_files\prompt_28.xlsx,C:\Users\id05278\Desktop\MLLM matteo\Task and screenshots\experiment-20250603T085947Z-1-001\experiment\responses_files\img_prompt_28.jpg,What is the quote on the image?,28,28.1,"My goal is not to be better than anyone else, but rather to use my own abilities and passions in order to achieve success. I am a person who values self-improvement and growth as much as others do. The phrase "my goal is not to be better than anyone else" reflects my determination for personal development and progress. It emphasizes that I will strive to improve myself regardless of external factors or competition.",2.333333333333333,VisualGLM-6b,0,16,16,27,0,0,0,0,676.5571709999931,,,,,,,,,,,,,,,,667.4583936999843,667.467515700002,667.9542053999903,667.9542196999828,667.9884425000055,667.9884425000055,667.9884425000055,676.1888920000056,space,8.198080199974356,None,676.5491931999859,What is the quote on the image?,"My goal is not to be better than anyone else, but rather to use my own abilities and passions in order to achieve success. I am a person who values self-improvement and growth as much as others do. The phrase "my goal is not to be better than anyone else" reflects my determination for personal development and progress. It emphasizes that I will strive to improve myself regardless of external factors or competition.",676.5571709999931,677.5536250000005,677.5536432999943,677.5870671999874,691.8208380999858,space,14.222649600007571,None,692.0332331999962,692.0729407999897,692.0729407999897,692.0729407999897,692.0729407999897,697.1869679999945,697.1869679999945,697.3926786000084,space,0.17423360000248067,None,4,2.9498019000166096,4,4.151753999991342,5,5.0875350999995135,,,,,,,,,,,,667.9884425000055,,,,,,,,1,001,2025-09-02_16h03.17.492,TEST_eye_tracker,2024.1.5,None,2025-09-02 16h03.27.247390 +0200,
28,C:\Users\id05278\Desktop\MLLM matteo\Task and screenshots\experiment-20250603T085947Z-1-001\experiment\responses_files\prompt_28.xlsx,C:\Users\id05278\Desktop\MLLM matteo\Task and screenshots\experiment-20250603T085947Z-1-001\experiment\responses_files\img_prompt_28.jpg,What is the quote on the image?,28,28.2,"The quote on the image is: "My goal is not to be better than anyone else, but to be better than I used to be." - Wayne Dyer",4.333333333333333,Qwen-VL-Chat,0,16,16,27,0,1,1,1,697.4201896000013,,,,,,,,,,,,,,,,,,,,,,,,,,,697.3932705000043,What is the quote on the image?,"The quote on the image is: "My goal is not to be better than anyone else, but to be better than I used to be." - Wayne Dyer",697.4201896000013,698.4201696999953,698.4201872999838,698.4536446999991,700.9208578999969,space,2.460490099998424,None,701.1276575000084,701.167735199997,701.167735199997,701.167735199997,701.167735199997,703.5536261999805,703.5536261999805,703.7928507000033,space,0.20139820000622422,None,5,1.0894825000141282,5,1.824073199997656,5,2.3598741999885533,,,,,,,,,,,,,,,,,,,,1,001,2025-09-02_16h03.17.492,TEST_eye_tracker,2024.1.5,None,2025-09-02 16h03.27.247390 +0200,
28,C:\Users\id05278\Desktop\MLLM matteo\Task and screenshots\experiment-20250603T085947Z-1-001\experiment\responses_files\prompt_28.xlsx,C:\Users\id05278\Desktop\MLLM matteo\Task and screenshots\experiment-20250603T085947Z-1-001\experiment\responses_files\img_prompt_28.jpg,What is the quote on the image?,,,0.888,,,0,16,16,27,,,,,,,,,,,,,,,,,,,,,,,,,,,,,,,,,What is the quote on the image?,0.888,,,,,,,,,,,,,,,,,,,,,,,,,,703.9064572000061,703.9212499999849,703.9212499999849,704.453551899991,704.453551899991,704.5894685999956,2,0.4805056999903172,space,0.12422359999618493,None,,,,,,,,,1,001,2025-09-02_16h03.17.492,TEST_eye_tracker,2024.1.5,None,2025-09-02 16h03.27.247390 +0200,
2,C:\Users\id05278\Desktop\MLLM matteo\Task and screenshots\experiment-20250603T085947Z-1-001\experiment\responses_files\prompt_2.xlsx,C:\Users\id05278\Desktop\MLLM matteo\Task and screenshots\experiment-20250603T085947Z-1-001\experiment\responses_files\img_prompt_2.jpg,Can you spot the purple umbrella near the green leaves? It appears to be left behind by someone.,2,2.1,"The image shows a street scene with traffic signs in the foreground, but there is no visible purple umbrella near any green leaves. It might not be included in the frame of this picture or it might be obscured from view.",1.666666666666667,gpt-4v,0,17,17,1,0,0,0,0,718.5731288999959,,,,,,,,,,,,,,,,704.6584853999957,704.6674639999983,705.1541367000027,705.1541528000089,705.1888249999902,705.1888249999902,705.1888249999902,718.0557242000068,space,12.84482709999429,None,718.5645339000039,Can you spot the purple umbrella near the green leaves? It appears to be left behind by someone.,"The image shows a street scene with traffic signs in the foreground, but there is no visible purple umbrella near any green leaves. It might not be included in the frame of this picture or it might be obscured from view.",718.5731288999959,719.5536087999935,719.5536204999953,719.5869186999917,726.0211497999844,space,6.430988599982811,None,726.2275727000087,726.2665466000035,726.2665466000035,726.2665466000035,726.2665466000035,728.7201877000043,728.7201877000043,728.7930924999819,space,0.057613100012531504,None,5,1.3229143999924418,5,1.7912099999957718,5,2.4266463999811094,,,,,,,,,,,,705.1888249999902,,,,,,,,1,001,2025-09-02_16h03.17.492,TEST_eye_tracker,2024.1.5,None,2025-09-02 16h03.27.247390 +0200,
2,C:\Users\id05278\Desktop\MLLM matteo\Task and screenshots\experiment-20250603T085947Z-1-001\experiment\responses_files\prompt_2.xlsx,C:\Users\id05278\Desktop\MLLM matteo\Task and screenshots\experiment-20250603T085947Z-1-001\experiment\responses_files\img_prompt_2.jpg,Can you spot the purple umbrella near the green leaves? It appears to be left behind by someone.,2,2.2,"Yes, there is a purple umbrella near the green leaves in the image. It appears to be left behind by someone, possibly a pedestrian who forgot it while walking by.",2.333333333333333,llava1.5-13b,0,17,17,1,0,1,1,1,728.820066299988,,,,,,,,,,,,,,,,,,,,,,,,,,,728.7936840000039,Can you spot the purple umbrella near the green leaves? It appears to be left behind by someone.,"Yes, there is a purple umbrella near the green leaves in the image. It appears to be left behind by someone, possibly a pedestrian who forgot it while walking by.",728.820066299988,729.8214392999944,729.8214567999821,729.8545876999851,733.820891499985,space,3.939159000001382,None,734.0183292999864,734.057661400002,734.057661400002,734.057661400002,734.057661400002,736.9201337999839,736.9201337999839,737.4262744000007,space,0.48128839998389594,None,1,0.8321322000119835,1,1.6690213999827392,5,2.836334399995394,,,,,,,,,,,,,,,,,,,,1,001,2025-09-02_16h03.17.492,TEST_eye_tracker,2024.1.5,None,2025-09-02 16h03.27.247390 +0200,
2,C:\Users\id05278\Desktop\MLLM matteo\Task and screenshots\experiment-20250603T085947Z-1-001\experiment\responses_files\prompt_2.xlsx,C:\Users\id05278\Desktop\MLLM matteo\Task and screenshots\experiment-20250603T085947Z-1-001\experiment\responses_files\img_prompt_2.jpg,Can you spot the purple umbrella near the green leaves? It appears to be left behind by someone.,,,0.888,,,0,17,17,1,,,,,,,,,,,,,,,,,,,,,,,,,,,,,,,,,Can you spot the purple umbrella near the green leaves? It appears to be left behind by someone.,0.888,,,,,,,,,,,,,,,,,,,,,,,,,,737.5368364999886,737.552641199989,737.552641199989,739.0204149000056,739.0204149000056,739.1231001999986,1,1.4168041000084486,space,0.09332720001111738,None,,,,,,,,,1,001,2025-09-02_16h03.17.492,TEST_eye_tracker,2024.1.5,None,2025-09-02 16h03.27.247390 +0200,
18,C:\Users\id05278\Desktop\MLLM matteo\Task and screenshots\experiment-20250603T085947Z-1-001\experiment\responses_files\prompt_18.xlsx,C:\Users\id05278\Desktop\MLLM matteo\Task and screenshots\experiment-20250603T085947Z-1-001\experiment\responses_files\img_prompt_18.jpg,What time does the clock on the building show?,18,18.2,The clock on the building shows 12:30.,4.666666666666667,Qwen-VL-Chat,0,18,18,17,0,0,0,1,748.4809713999857,,,,,,,,,,,,,,,,739.1929621000018,739.2021478999814,739.6873820000037,739.6873960999947,739.7218026999908,739.7218026999908,739.7218026999908,748.023194999987,space,8.281270100007532,None,748.4733015999955,What time does the clock on the building show?,The clock on the building shows 12:30.,748.4809713999857,749.4537313999899,749.4537568000087,749.4881928999966,751.6542804999917,space,2.145843900012551,None,751.8544935999962,751.8942783999955,751.8942783999955,751.8942783999955,751.8942783999955,754.28671819999,754.28671819999,757.526426299999,space,3.2187857999815606,None,1,0.9956796999904327,1,1.5984795000113081,5,3.700626800011378,,,,,,,,,,,,739.7218026999908,,,,,,,,1,001,2025-09-02_16h03.17.492,TEST_eye_tracker,2024.1.5,None,2025-09-02 16h03.27.247390 +0200,
18,C:\Users\id05278\Desktop\MLLM matteo\Task and screenshots\experiment-20250603T085947Z-1-001\experiment\responses_files\prompt_18.xlsx,C:\Users\id05278\Desktop\MLLM matteo\Task and screenshots\experiment-20250603T085947Z-1-001\experiment\responses_files\img_prompt_18.jpg,What time does the clock on the building show?,18,18.1,The clock on the building shows approximately 3:00.,4,gpt-4v,0,18,18,17,0,1,1,0,757.5535933999927,,,,,,,,,,,,,,,,,,,,,,,,,,,757.5270205999841,What time does the clock on the building show?,The clock on the building shows approximately 3:00.,757.5535933999927,758.5537247000029,758.5537370999809,758.5867806999886,761.0209594999906,space,2.414758200000506,None,761.2273203000077,761.2678885000059,761.2678885000059,761.2678885000059,761.2678885000059,768.6536465999961,768.6536465999961,768.9264830999891,space,0.252218300011009,None,4,5.322782899980666,4,6.7590887999976985,5,7.360534800012829,,,,,,,,,,,,,,,,,,,,1,001,2025-09-02_16h03.17.492,TEST_eye_tracker,2024.1.5,None,2025-09-02 16h03.27.247390 +0200,
18,C:\Users\id05278\Desktop\MLLM matteo\Task and screenshots\experiment-20250603T085947Z-1-001\experiment\responses_files\prompt_18.xlsx,C:\Users\id05278\Desktop\MLLM matteo\Task and screenshots\experiment-20250603T085947Z-1-001\experiment\responses_files\img_prompt_18.jpg,What time does the clock on the building show?,,,0.888,,,0,18,18,17,,,,,,,,,,,,,,,,,,,,,,,,,,,,,,,,,What time does the clock on the building show?,0.888,,,,,,,,,,,,,,,,,,,,,,,,,,769.036120899982,769.0517688999826,769.0517688999826,770.0535353999876,770.0535353999876,770.122623800009,2,0.9507379999849945,space,0.04415609998977743,None,,,,,,,,,1,001,2025-09-02_16h03.17.492,TEST_eye_tracker,2024.1.5,None,2025-09-02 16h03.27.247390 +0200,
5,C:\Users\id05278\Desktop\MLLM matteo\Task and screenshots\experiment-20250603T085947Z-1-001\experiment\responses_files\prompt_5.xlsx,C:\Users\id05278\Desktop\MLLM matteo\Task and screenshots\experiment-20250603T085947Z-1-001\experiment\responses_files\img_prompt_5.jpg,What are the key elements in this picture?,5,5.1,"The image features a man and a young boy sitting at a table, enjoying a meal together. The man is holding a doughnut, while the boy is holding a bagel. They are both sitting at the table, surrounded by various food items, including a plate of doughnuts, a bagel, and a cup of coffee. There are also a few other doughnuts scattered around the table, indicating that they are part of the meal. The scene is warm and inviting, showcasing a father and son enjoying a casual meal together.",4.333333333333333,instructblip-vicuna-13b,0,19,19,4,0,0,0,0,780.2838000000047,,,,,,,,,,,,,,,,770.1918637999916,770.2011286999914,770.6874268999964,770.6874386999989,770.7218686999986,770.7218686999986,770.7218686999986,779.7556114000035,space,9.01633490002132,None,780.2748045999906,What are the key elements in this picture?,"The image features a man and a young boy sitting at a table, enjoying a meal together. The man is holding a doughnut, while the boy is holding a bagel. They are both sitting at the table, surrounded by various food items, including a plate of doughnuts, a bagel, and a cup of coffee. There are also a few other doughnuts scattered around the table, indicating that they are part of the meal. The scene is warm and inviting, showcasing a father and son enjoying a casual meal together.",780.2838000000047,781.2537934999855,781.2538057999918,781.2870338000066,799.7215247999993,space,18.410587899998063,None,799.9270450999902,799.9668043999991,799.9668043999991,799.9668043999991,799.9668043999991,804.1869208999851,804.1869208999851,804.6930755999929,space,0.49475390001316555,None,3,1.623365700012073,3,3.3921907999902032,5,4.194445100001758,,,,,,,,,,,,770.7218686999986,,,,,,,,1,001,2025-09-02_16h03.17.492,TEST_eye_tracker,2024.1.5,None,2025-09-02 16h03.27.247390 +0200,
5,C:\Users\id05278\Desktop\MLLM matteo\Task and screenshots\experiment-20250603T085947Z-1-001\experiment\responses_files\prompt_5.xlsx,C:\Users\id05278\Desktop\MLLM matteo\Task and screenshots\experiment-20250603T085947Z-1-001\experiment\responses_files\img_prompt_5.jpg,What are the key elements in this picture?,5,5.2,"The main element of this image is a man and a young boy sitting at a table, enjoying breakfast together. They are both eating doughnuts with sprinkles on them while they enjoy their meal. This scene suggests that they might be spending time as family members or friends who share common interests such as food.",3.666666666666667,VisualGLM-6b,0,19,19,4,0,1,1,1,804.7202495000092,,,,,,,,,,,,,,,,,,,,,,,,,,,804.6936600999907,What are the key elements in this picture?,"The main element of this image is a man and a young boy sitting at a table, enjoying breakfast together. They are both eating doughnuts with sprinkles on them while they enjoy their meal. This scene suggests that they might be spending time as family members or friends who share common interests such as food.",804.7202495000092,805.7204664000019,805.7204788999807,805.7536295999889,815.6542638999817,space,9.888514699996449,None,815.864356999984,815.9035251000023,815.9035251000023,815.9035251000023,815.9035251000023,820.2536630999821,820.2536630999821,821.4929804999847,space,1.2199630000104662,None,4,0.7862127000116743,4,1.588509100023657,5,4.324438500014367,,,,,,,,,,,,,,,,,,,,1,001,2025-09-02_16h03.17.492,TEST_eye_tracker,2024.1.5,None,2025-09-02 16h03.27.247390 +0200,
5,C:\Users\id05278\Desktop\MLLM matteo\Task and screenshots\experiment-20250603T085947Z-1-001\experiment\responses_files\prompt_5.xlsx,C:\Users\id05278\Desktop\MLLM matteo\Task and screenshots\experiment-20250603T085947Z-1-001\experiment\responses_files\img_prompt_5.jpg,What are the key elements in this picture?,,,0.888,,,0,19,19,4,,,,,,,,,,,,,,,,,,,,,,,,,,,,,,,,,What are the key elements in this picture?,0.888,,,,,,,,,,,,,,,,,,,,,,,,,,821.6086502999824,821.623698499985,821.623698499985,822.7203477000003,822.7203477000003,822.989287400007,2,1.044596299994737,space,0.2347099999897182,None,,,,,,,,,1,001,2025-09-02_16h03.17.492,TEST_eye_tracker,2024.1.5,None,2025-09-02 16h03.27.247390 +0200,
6,C:\Users\id05278\Desktop\MLLM matteo\Task and screenshots\experiment-20250603T085947Z-1-001\experiment\responses_files\prompt_6.xlsx,C:\Users\id05278\Desktop\MLLM matteo\Task and screenshots\experiment-20250603T085947Z-1-001\experiment\responses_files\img_prompt_6.jpg,Did the artist include a chicken in this piece?,6,6.1,"No, the artist did not include a chicken in this piece. The image features two cows standing next to each other on a dirt road, with a man standing behind them. There are no chickens in the scene. The focus of the image is on the cows and the man, and it does not include any other animals.",5,LLaVA-RLHF-7b-v1.5-224,0,20,20,5,0,0,0,0,825.5486530000053,,,,,,,,,,,,,,,,823.0580751000089,823.0672535999911,823.5543447999808,823.5543619999953,823.5888888000045,823.5888888000045,823.5888888000045,825.0558253999916,space,1.4530937000236008,None,825.540118200006,Did the artist include a chicken in this piece?,"No, the artist did not include a chicken in this piece. The image features two cows standing next to each other on a dirt road, with a man standing behind them. There are no chickens in the scene. The focus of the image is on the cows and the man, and it does not include any other animals.",825.5486530000053,826.5536949999805,826.5537072999869,826.5869138999842,837.5210916000069,space,10.902600500005065,None,837.7229106999876,837.7625761999807,837.7625761999807,837.7625761999807,837.7625761999807,841.1203649999807,841.1203649999807,841.4931307999941,space,0.35332669998751953,None,4,1.0942902000097092,5,2.2964520000095945,5,3.3335314000141807,,,,,,,,,,,,823.5888888000045,,,,,,,,1,001,2025-09-02_16h03.17.492,TEST_eye_tracker,2024.1.5,None,2025-09-02 16h03.27.247390 +0200,
6,C:\Users\id05278\Desktop\MLLM matteo\Task and screenshots\experiment-20250603T085947Z-1-001\experiment\responses_files\prompt_6.xlsx,C:\Users\id05278\Desktop\MLLM matteo\Task and screenshots\experiment-20250603T085947Z-1-001\experiment\responses_files\img_prompt_6.jpg,Did the artist include a chicken in this piece?,6,6.2,"No, there is no chicken in this image. The image shows a street scene with cows. There is a white cow with a bell around its neck looking directly at the camera, and another cow in front of it seen from behind. There are also people in the background, but no chickens are visible in the photograph.",4,gpt-4v,0,20,20,5,0,1,1,1,841.5202572999988,,,,,,,,,,,,,,,,,,,,,,,,,,,841.4937527999864,Did the artist include a chicken in this piece?,"No, there is no chicken in this image. The image shows a street scene with cows. There is a white cow with a bell around its neck looking directly at the camera, and another cow in front of it seen from behind. There are also people in the background, but no chickens are visible in the photograph.",841.5202572999988,842.5204425999837,842.5204541999847,842.5536665999971,854.4211481999955,space,11.840216200012947,None,854.6302959999884,854.6694897999987,854.6694897999987,854.6694897999987,854.6694897999987,857.4535988999996,857.4535988999996,857.7266060999827,space,0.2364891000033822,None,5,0.9202949999889825,5,1.6893515000119805,5,2.758489899977576,,,,,,,,,,,,,,,,,,,,1,001,2025-09-02_16h03.17.492,TEST_eye_tracker,2024.1.5,None,2025-09-02 16h03.27.247390 +0200,
6,C:\Users\id05278\Desktop\MLLM matteo\Task and screenshots\experiment-20250603T085947Z-1-001\experiment\responses_files\prompt_6.xlsx,C:\Users\id05278\Desktop\MLLM matteo\Task and screenshots\experiment-20250603T085947Z-1-001\experiment\responses_files\img_prompt_6.jpg,Did the artist include a chicken in this piece?,,,0.888,,,0,20,20,5,,,,,,,,,,,,,,,,,,,,,,,,,,,,,,,,,Did the artist include a chicken in this piece?,0.888,,,,,,,,,,,,,,,,,,,,,,,,,,857.8543739999877,857.8692269999883,857.8692269999883,858.5537559000077,858.5537559000077,858.7561964000051,2,0.6323445000161882,space,0.19946050000726245,None,,,,,,,,,1,001,2025-09-02_16h03.17.492,TEST_eye_tracker,2024.1.5,None,2025-09-02 16h03.27.247390 +0200,
24,C:\Users\id05278\Desktop\MLLM matteo\Task and screenshots\experiment-20250603T085947Z-1-001\experiment\responses_files\prompt_24.xlsx,C:\Users\id05278\Desktop\MLLM matteo\Task and screenshots\experiment-20250603T085947Z-1-001\experiment\responses_files\img_prompt_24.jpg,What's happening in the scene?,24,24.1,"In this scene, there is a person reclining on a couch in what appears to be a living room with the lights dimmed. They seem relaxed, possibly watching TV or looking at a mobile device. The individual has one leg crossed over the other and is holding a small dog in their lap, suggesting a moment of rest and companionship. The room is cluttered, with various items strewn about, including on the kitchen counter and the coffee table. This setting gives the impression of a casual, lived-in space where someone is unwinding after a day's activities. The overall atmosphere is one of domestic life and informality.",1,gpt-4v,0,21,21,23,0,0,0,0,867.0170118999959,,,,,,,,,,,,,,,,858.8292800000054,858.8379528000078,859.320922999992,859.320936300006,859.3564767999924,859.3564767999924,859.3564767999924,866.5225119999959,space,7.149565900006564,None,867.0090765999921,What's happening in the scene?,"In this scene, there is a person reclining on a couch in what appears to be a living room with the lights dimmed. They seem relaxed, possibly watching TV or looking at a mobile device. The individual has one leg crossed over the other and is holding a small dog in their lap, suggesting a moment of rest and companionship. The room is cluttered, with various items strewn about, including on the kitchen counter and the coffee table. This setting gives the impression of a casual, lived-in space where someone is unwinding after a day's activities. The overall atmosphere is one of domestic life and informality.",867.0170118999959,868.0204058999952,868.0204192999809,868.0539266999986,890.121381200006,space,22.03592659998685,None,890.3375299999898,890.3769412999973,890.3769412999973,890.3769412999973,890.3769412999973,892.8870153999887,892.8870153999887,893.1929023999837,space,0.27425650000805035,None,3,0.6462246000010055,3,1.6483960000041407,5,2.4837768000143114,,,,,,,,,,,,859.3564767999924,,,,,,,,1,001,2025-09-02_16h03.17.492,TEST_eye_tracker,2024.1.5,None,2025-09-02 16h03.27.247390 +0200,
24,C:\Users\id05278\Desktop\MLLM matteo\Task and screenshots\experiment-20250603T085947Z-1-001\experiment\responses_files\prompt_24.xlsx,C:\Users\id05278\Desktop\MLLM matteo\Task and screenshots\experiment-20250603T085947Z-1-001\experiment\responses_files\img_prompt_24.jpg,What's happening in the scene?,24,24.2,"The image depicts a man and a woman sitting on a couch in a living room. They are facing each other and appear to be engaged in a conversation or watching something together. The couch is positioned in the center of the room, with a dining table and a kitchen area visible in the background. There are several objects scattered around the room, including a TV, a laptop, a cell phone, and a few bottles. A refrigerator can be seen in the kitchen area, and a microwave is also present. The living room is furnished with a chair and a potted plant, adding a touch of greenery to the space.",3,LLaVA-RLHF-7b-v1.5-224,0,21,21,23,0,1,1,1,893.2203559000045,,,,,,,,,,,,,,,,,,,,,,,,,,,893.1935180999862,What's happening in the scene?,"The image depicts a man and a woman sitting on a couch in a living room. They are facing each other and appear to be engaged in a conversation or watching something together. The couch is positioned in the center of the room, with a dining table and a kitchen area visible in the background. There are several objects scattered around the room, including a TV, a laptop, a cell phone, and a few bottles. A refrigerator can be seen in the kitchen area, and a microwave is also present. The living room is furnished with a chair and a potted plant, adding a touch of greenery to the space.",893.2203559000045,894.2209449000075,894.2209604000091,894.2539418999804,910.5546895999869,space,16.27541260002181,None,910.7697553999897,910.8082880000002,910.8082880000002,910.8082880000002,910.8082880000002,912.7547244000016,912.7547244000016,913.159628399997,space,0.3675678000145126,None,5,0.5476797000155784,5,1.2168829000147525,5,1.9194049999932759,,,,,,,,,,,,,,,,,,,,1,001,2025-09-02_16h03.17.492,TEST_eye_tracker,2024.1.5,None,2025-09-02 16h03.27.247390 +0200,
24,C:\Users\id05278\Desktop\MLLM matteo\Task and screenshots\experiment-20250603T085947Z-1-001\experiment\responses_files\prompt_24.xlsx,C:\Users\id05278\Desktop\MLLM matteo\Task and screenshots\experiment-20250603T085947Z-1-001\experiment\responses_files\img_prompt_24.jpg,What's happening in the scene?,,,0.888,,,0,21,21,23,,,,,,,,,,,,,,,,,,,,,,,,,,,,,,,,,What's happening in the scene?,0.888,,,,,,,,,,,,,,,,,,,,,,,,,,913.284894899989,913.299717899994,913.299717899994,914.6203458999807,914.6203458999807,914.7226629999932,2,1.2687316000228748,space,0.07797949999803677,None,,,,,,,,,1,001,2025-09-02_16h03.17.492,TEST_eye_tracker,2024.1.5,None,2025-09-02 16h03.27.247390 +0200,
4,C:\Users\id05278\Desktop\MLLM matteo\Task and screenshots\experiment-20250603T085947Z-1-001\experiment\responses_files\prompt_4.xlsx,C:\Users\id05278\Desktop\MLLM matteo\Task and screenshots\experiment-20250603T085947Z-1-001\experiment\responses_files\img_prompt_4.jpg,Please provide an intricate breakdown of the image.,4,4.1,"The image is a compilation of four photos, each depicting a man performing a trick on a skateboard. The man is wearing a black shirt and jeans throughout the sequence. In the first photo, the man is at the top of a ramp, preparing to drop in and ride his skateboard down the ramp. The following three photos show him in mid-air, executing a trick that involves jumping over a ledge. The sequence captures the motion and excitement of the skateboarder's performance.",4,Qwen-VL-Chat,0,22,22,3,0,0,0,0,927.6396685999935,,,,,,,,,,,,,,,,914.7932651999872,914.8022842000064,915.2876445000002,915.2876571000088,915.3220317999949,915.3220317999949,915.3220317999949,927.156063500006,space,11.832260900002439,None,927.6317398999818,Please provide an intricate breakdown of the image.,"The image is a compilation of four photos, each depicting a man performing a trick on a skateboard. The man is wearing a black shirt and jeans throughout the sequence. In the first photo, the man is at the top of a ramp, preparing to drop in and ride his skateboard down the ramp. The following three photos show him in mid-air, executing a trick that involves jumping over a ledge. The sequence captures the motion and excitement of the skateboarder's performance.",927.6396685999935,928.6205479000055,928.6205785000056,928.6541701999959,947.1213943999901,space,18.451357799989637,None,947.3378061999974,947.3780723999953,947.3780723999953,947.3780723999953,947.3780723999953,950.8205189,950.8205189,951.3265334999887,space,0.4933798999991268,None,4,2.179230000008829,4,2.681170199997723,5,3.417719900025986,,,,,,,,,,,,915.3220317999949,,,,,,,,1,001,2025-09-02_16h03.17.492,TEST_eye_tracker,2024.1.5,None,2025-09-02 16h03.27.247390 +0200,
4,C:\Users\id05278\Desktop\MLLM matteo\Task and screenshots\experiment-20250603T085947Z-1-001\experiment\responses_files\prompt_4.xlsx,C:\Users\id05278\Desktop\MLLM matteo\Task and screenshots\experiment-20250603T085947Z-1-001\experiment\responses_files\img_prompt_4.jpg,Please provide an intricate breakdown of the image.,4,4.2,"The image is a collage of six different shots featuring a skateboarder performing various tricks on a skateboard. The skateboarder is captured in different positions and stages of the tricks, showcasing their skills and the progression of the stunts. In each of the six shots, the skateboarder is wearing a black shirt, and the skateboard is visible in various positions throughout the collage. The skateboarder is captured in different stages of the tricks, from the initial approach to the peak of the stunt and the landing. The collage captures the essence of the skateboarder's performance and the excitement of the sport.",4.666666666666667,llava1.5-13b,0,22,22,3,0,1,1,1,951.3536217999936,,,,,,,,,,,,,,,,,,,,,,,,,,,951.327119900001,Please provide an intricate breakdown of the image.,"The image is a collage of six different shots featuring a skateboarder performing various tricks on a skateboard. The skateboarder is captured in different positions and stages of the tricks, showcasing their skills and the progression of the stunts. In each of the six shots, the skateboarder is wearing a black shirt, and the skateboard is visible in various positions throughout the collage. The skateboarder is captured in different stages of the tricks, from the initial approach to the peak of the stunt and the landing. The collage captures the essence of the skateboarder's performance and the excitement of the sport.",951.3536217999936,952.3539849999943,952.3539969999983,952.38747039999,974.4550724999863,space,22.04633339997963,None,974.6722032999969,974.7114032999962,974.7114032999962,974.7114032999962,974.7114032999962,980.2537166999828,980.2537166999828,980.826836799999,space,0.5569763999956194,None,2,0.6787970000004862,3,3.280906200001482,5,5.516953899990767,,,,,,,,,,,,,,,,,,,,1,001,2025-09-02_16h03.17.492,TEST_eye_tracker,2024.1.5,None,2025-09-02 16h03.27.247390 +0200,
4,C:\Users\id05278\Desktop\MLLM matteo\Task and screenshots\experiment-20250603T085947Z-1-001\experiment\responses_files\prompt_4.xlsx,C:\Users\id05278\Desktop\MLLM matteo\Task and screenshots\experiment-20250603T085947Z-1-001\experiment\responses_files\img_prompt_4.jpg,Please provide an intricate breakdown of the image.,,,0.888,,,0,22,22,3,,,,,,,,,,,,,,,,,,,,,,,,,,,,,,,,,Please provide an intricate breakdown of the image.,0.888,,,,,,,,,,,,,,,,,,,,,,,,,,980.9568444000033,980.9734228999878,980.9734228999878,982.3207043999864,982.3207043999864,982.522948400001,1,1.2969293000060134,space,0.17702299999655224,None,,,,,,,,,1,001,2025-09-02_16h03.17.492,TEST_eye_tracker,2024.1.5,None,2025-09-02 16h03.27.247390 +0200,
15,C:\Users\id05278\Desktop\MLLM matteo\Task and screenshots\experiment-20250603T085947Z-1-001\experiment\responses_files\prompt_15.xlsx,C:\Users\id05278\Desktop\MLLM matteo\Task and screenshots\experiment-20250603T085947Z-1-001\experiment\responses_files\img_prompt_15.jpg,What is the title of Naomi Klein's book?,15,15.1,The title of Naomi Klein's book is "The Shock Doctrine: The Rise of Disaster Capitalism.",5,gpt-4v,0,23,23,14,0,0,0,0,990.584975500009,,,,,,,,,,,,,,,,982.5962685999984,982.6051800999849,983.1206754999876,983.1206932000059,983.1560094000015,983.1560094000015,983.1560094000015,990.2892405999883,space,7.10976390002179,None,990.577042799996,What is the title of Naomi Klein's book?,The title of Naomi Klein's book is "The Shock Doctrine: The Rise of Disaster Capitalism.",990.584975500009,991.5873349999893,991.5873602000065,991.6204847999907,994.3547931000066,space,2.725111799984006,None,994.5505934999965,994.5896175999951,994.5896175999951,994.5896175999951,994.5896175999951,997.4539937000081,997.4539937000081,997.7600156999833,space,0.26790279999841005,None,5,1.2669055000005756,5,2.135504599980777,5,2.8382867999898735,,,,,,,,,,,,,,,,,,,,1,001,2025-09-02_16h03.17.492,TEST_eye_tracker,2024.1.5,None,2025-09-02 16h03.27.247390 +0200,
15,C:\Users\id05278\Desktop\MLLM matteo\Task and screenshots\experiment-20250603T085947Z-1-001\experiment\responses_files\prompt_15.xlsx,C:\Users\id05278\Desktop\MLLM matteo\Task and screenshots\experiment-20250603T085947Z-1-001\experiment\responses_files\img_prompt_15.jpg,What is the title of Naomi Klein's book?,15,15.2,"The title of NaomiKlein's book "The Shock Doctrine" is "The End of Employment and the Rise of Disaster Capitalism." This book explores how economic policies have become increasingly harmful to human rights, social justice, and environmental sustainability. It argues that the shock doctrine has led to a situation where large-scale industries are being built in developing countries with little regard for local conditions or social implications.",2.333333333333333,VisualGLM-6b,0,23,23,14,0,1,1,1,997.7872603999858,,,,,,,,,,,,,,,,,,,,,,,,,,,997.760632999998,What is the title of Naomi Klein's book?,"The title of NaomiKlein's book "The Shock Doctrine" is "The End of Employment and the Rise of Disaster Capitalism." This book explores how economic policies have become increasingly harmful to human rights, social justice, and environmental sustainability. It argues that the shock doctrine has led to a situation where large-scale industries are being built in developing countries with little regard for local conditions or social implications.",997.7872603999858,998.7872846999962,998.7872983999841,998.8207068000047,1009.8547583000036,space,11.028969400009373,None,1010.0677064000047,1010.1062787999981,1010.1062787999981,1010.1062787999981,1010.1062787999981,1015.4207656999934,1015.4207656999934,1017.0265214999963,space,1.5811351999873295,None,2,3.750255599996308,4,6.552677600004245,5,5.287429899995914,,,,,,,,,,,,,,,,,,,,1,001,2025-09-02_16h03.17.492,TEST_eye_tracker,2024.1.5,None,2025-09-02 16h03.27.247390 +0200,
15,C:\Users\id05278\Desktop\MLLM matteo\Task and screenshots\experiment-20250603T085947Z-1-001\experiment\responses_files\prompt_15.xlsx,C:\Users\id05278\Desktop\MLLM matteo\Task and screenshots\experiment-20250603T085947Z-1-001\experiment\responses_files\img_prompt_15.jpg,What is the title of Naomi Klein's book?,,,0.888,,,0,23,23,14,,,,,,,,,,,,,,,,,,,,,,,,,,,,,,,,,What is the title of Naomi Klein's book?,0.888,,,,,,,,,,,,,,,,,,,,,,,,,,1017.1598369999847,1017.1741745999898,1017.1741745999898,1018.6874774000025,1018.6874774000025,1018.8898506999831,1,1.4606920999940485,space,0.1861452000157442,None,,,,,,,,,1,001,2025-09-02_16h03.17.492,TEST_eye_tracker,2024.1.5,None,2025-09-02 16h03.27.247390 +0200,
10,C:\Users\id05278\Desktop\MLLM matteo\Task and screenshots\experiment-20250603T085947Z-1-001\experiment\responses_files\prompt_10.xlsx,C:\Users\id05278\Desktop\MLLM matteo\Task and screenshots\experiment-20250603T085947Z-1-001\experiment\responses_files\img_prompt_10.jpg,What could be a reason the people in the image are playing Wii at work?,10,10.1,"A possible reason the people in the image are playing Wii at work could be that they enjoy spending time together, engaging in fun activities, and fostering a sense of camaraderie. Wii games often involve physical movements, which can help relieve stress, promote teamwork, and enhance communication among players. By playing together, they share a common interest in a fun and interactive way, which can contribute to a positive work environment. Additionally, playing Wii at work might encourage employees to engage in more physical activity, which can lead to improved health and well-being.",5,fuyu-8b,0,24,24,9,0,0,0,0,1028.0260364999995,,,,,,,,,,,,,,,,1018.9631868999859,1018.9719925999816,1019.487564799987,1019.487578500004,1019.522330399981,1019.522330399981,1019.522330399981,1027.489314699982,space,7.943303999985801,None,1028.0179976999934,What could be a reason the people in the image are playing Wii at work?,"A possible reason the people in the image are playing Wii at work could be that they enjoy spending time together, engaging in fun activities, and fostering a sense of camaraderie. Wii games often involve physical movements, which can help relieve stress, promote teamwork, and enhance communication among players. By playing together, they share a common interest in a fun and interactive way, which can contribute to a positive work environment. Additionally, playing Wii at work might encourage employees to engage in more physical activity, which can lead to improved health and well-being.",1028.0260364999995,1029.0205943000037,1029.0206055000017,1029.0541107000026,1045.9884735000087,space,16.9318770999962,None,1046.2075147999858,1046.2477624999883,1046.2477624999883,1046.2477624999883,1046.2477624999883,1048.8206018999917,1048.8206018999917,1049.1268053000094,space,0.26951240000198595,None,5,1.0763047999935225,5,1.7451388999761548,5,2.546799000003375,,,,,,,,,,,,,,,,,,,,1,001,2025-09-02_16h03.17.492,TEST_eye_tracker,2024.1.5,None,2025-09-02 16h03.27.247390 +0200,
