n_prompt,prompt_file,image_file,prompt_text,related_prompt,n_resp,resp_text,rank,model,Trial.thisRepN,Trial.thisTrialN,Trial.thisN,Trial.thisIndex,per_answer.thisRepN,per_answer.thisTrialN,per_answer.thisN,per_answer.thisIndex,thisRow.t,notes,Intro_1.started,key_resp_5.started,textbox.started,Intro_1.stopped,key_resp_5.keys,key_resp_5.rt,key_resp_5.duration,Intro_2.started,textbox_2.started,key_resp_8.started,Intro_2.stopped,key_resp_8.keys,key_resp_8.rt,key_resp_8.duration,prompt_number.started,text.started,prompt_number.stopped,prompt.started,Prompt_.started,image.started,key_resp_4.started,prompt.stopped,key_resp_4.keys,key_resp_4.rt,key_resp_4.duration,Cross.started,prompt_text,resp_text,cross_white.started,Cross.stopped,trial_textbox.started,key_resp_2.started,trial_textbox.stopped,key_resp_2.keys,key_resp_2.rt,key_resp_2.duration,rating.started,question_useful_2.started,Inaccurate_Faithful.started,Not_Helpful_Helpful.started,ViolentHarmless.started,key_resp_6.started,press_space.started,rating.stopped,key_resp_6.keys,key_resp_6.rt,key_resp_6.duration,Inaccurate_Faithful.response,Inaccurate_Faithful.rt,Not_Helpful_Helpful.response,Not_Helpful_Helpful.rt,ViolentHarmless.response,ViolentHarmless.rt,ranking.started,question_ranking.started,ranking_better.started,key_resp_7.started,text_2.started,ranking.stopped,ranking_better.response,ranking_better.rt,key_resp_7.keys,key_resp_7.rt,key_resp_7.duration,text.stopped,End.started,Bye_message.started,press_to_end_exp.started,End.stopped,press_to_end_exp.keys,press_to_end_exp.rt,press_to_end_exp.duration,participant,session,date,expName,psychopyVersion,frameRate,expStart,
,,,,,,,,,,,,,,,,,,,0.0059329999930923805,0.01937059999909252,0.01937059999909252,59.91974939999636,space,59.87038490000123,None,,,,,,,,,,,,,,,,,,,,,,,,,,,,,,,,,,,,,,,,,,,,,,,,,,,,,,,,,,,,,,,,,,1,001,2025-09-04_13h24.29.915,TEST_eye_tracker,2024.1.5,None,2025-09-04 13h24.44.470444 +0200,
,,,,,,,,,,,,,,,,,,,,,,,,,,59.91977579999366,59.94978359999368,59.94978359999368,75.25056599999516,space,15.292263999996067,None,,,,,,,,,,,,,,,,,,,,,,,,,,,,,,,,,,,,,,,,,,,,,,,,,,,,,,,,,,,1,001,2025-09-04_13h24.29.915,TEST_eye_tracker,2024.1.5,None,2025-09-04 13h24.44.470444 +0200,
7,C:\Users\id05278\Desktop\MLLM matteo\Task and screenshots\experiment-20250603T085947Z-1-001\experiment\responses_files\prompt_7.xlsx,C:\Users\id05278\Desktop\MLLM matteo\Task and screenshots\experiment-20250603T085947Z-1-001\experiment\responses_files\img_prompt_7.jpg,Who has written the quote in the image?,7,7.2,"The image shows two people holding hands, one person's hand on top of another. They are smiling and seem to be at peace with each other. This is a beautiful moment that depicts love between two individuals who have been together for some time or even forever.",2.333333333333333,VisualGLM-6b,0,0,0,6,0,0,0,1,121.21420929999294,,,,,,,,,,,,,,,,75.26904489999288,75.28326389999711,75.78289439999935,75.78290809999453,77.86763279999286,77.86763279999286,77.86763279999286,120.91841159999603,space,43.045784699999786,None,121.20579349999753,Who has written the quote in the image?,"The image shows two people holding hands, one person's hand on top of another. They are smiling and seem to be at peace with each other. This is a beautiful moment that depicts love between two individuals who have been together for some time or even forever.",121.21420929999294,122.21626029999607,122.2162726999959,122.25327259999904,150.08417319999717,space,27.82803889999923,None,150.28468719999364,150.77207709999493,150.77207709999493,150.77207709999493,150.77207709999493,180.16591639999388,180.16591639999388,181.3230098999993,space,1.1238766000024043,None,3,17.154356400002143,3,27.689971500003594,1,29.359921700000996,,,,,,,,,,,,,,,,,,,,1,001,2025-09-04_13h24.29.915,TEST_eye_tracker,2024.1.5,None,2025-09-04 13h24.44.470444 +0200,
7,C:\Users\id05278\Desktop\MLLM matteo\Task and screenshots\experiment-20250603T085947Z-1-001\experiment\responses_files\prompt_7.xlsx,C:\Users\id05278\Desktop\MLLM matteo\Task and screenshots\experiment-20250603T085947Z-1-001\experiment\responses_files\img_prompt_7.jpg,Who has written the quote in the image?,7,7.1,Jignesh Jain,5,fuyu-8b,0,0,0,6,0,1,1,0,181.35000369999761,,,,,,,,,,,,,,,,,,,,,,,,,,,181.32379689999652,Who has written the quote in the image?,Jignesh Jain,181.35000369999761,182.34976139999344,182.34977349999826,182.3840898999988,186.98380539999926,space,4.594232200004626,None,187.18253739999636,187.22112149999884,187.22112149999884,187.22112149999884,187.22112149999884,195.31666349999432,195.31666349999432,196.0895720999979,space,0.757694599997194,None,5,2.530536899997969,4,5.866627499999595,1,8.073668999997608,,,,,,,,,,,,,,,,,,,,1,001,2025-09-04_13h24.29.915,TEST_eye_tracker,2024.1.5,None,2025-09-04 13h24.44.470444 +0200,
7,C:\Users\id05278\Desktop\MLLM matteo\Task and screenshots\experiment-20250603T085947Z-1-001\experiment\responses_files\prompt_7.xlsx,C:\Users\id05278\Desktop\MLLM matteo\Task and screenshots\experiment-20250603T085947Z-1-001\experiment\responses_files\img_prompt_7.jpg,Who has written the quote in the image?,,,0.888,,,0,0,0,6,,,,,,,,,,,,,,,,,,,,,,,,,,,,,,,,,Who has written the quote in the image?,0.888,,,,,,,,,,,,,,,,,,,,,,,,,,196.1301872999975,196.1480242999969,196.1480242999969,201.71654599999601,201.71654599999601,202.78583899999649,2,5.521690000001399,space,1.0449498999951174,None,,,,,,,,,1,001,2025-09-04_13h24.29.915,TEST_eye_tracker,2024.1.5,None,2025-09-04 13h24.44.470444 +0200,
25,C:\Users\id05278\Desktop\MLLM matteo\Task and screenshots\experiment-20250603T085947Z-1-001\experiment\responses_files\prompt_25.xlsx,C:\Users\id05278\Desktop\MLLM matteo\Task and screenshots\experiment-20250603T085947Z-1-001\experiment\responses_files\img_prompt_25.jpg,Could you give a blow-by-blow description of the image?,25,25.2,"The image features a dining table with a plate of food, including a variety of snacks and a can of soda. The plate is placed on a table with a colorful cloth, adding a touch of elegance to the scene. There are several carrots scattered across the plate, with some of them placed closer to the edge and others in the middle. Additionally, a few oranges are also present on the plate, adding a pop of color to the arrangement. The can of soda is positioned next to the plate, ready to be enjoyed alongside the snacks. The overall scene is a casual and inviting dining experience, with a mix of healthy and indulgent food options.",4.333333333333333,LLaVA-RLHF-7b-v1.5-224,0,1,1,24,0,0,0,1,218.39389419999497,,,,,,,,,,,,,,,,202.85678959999495,202.86858039999788,203.38334609999583,203.38335939999524,203.41807049999625,203.41807049999625,203.41807049999625,217.85355049999635,space,14.43260680000094,None,218.38546459999634,Could you give a blow-by-blow description of the image?,"The image features a dining table with a plate of food, including a variety of snacks and a can of soda. The plate is placed on a table with a colorful cloth, adding a touch of elegance to the scene. There are several carrots scattered across the plate, with some of them placed closer to the edge and others in the middle. Additionally, a few oranges are also present on the plate, adding a pop of color to the arrangement. The can of soda is positioned next to the plate, ready to be enjoyed alongside the snacks. The overall scene is a casual and inviting dining experience, with a mix of healthy and indulgent food options.",218.39389419999497,219.38308319999487,219.3830966999958,219.41836269999476,279.25101029999496,space,59.80056269999477,None,279.4603281999953,279.5014615999971,279.5014615999971,279.5014615999971,279.5014615999971,287.4500335999983,287.4500335999983,288.8560254999975,space,1.3919399999940651,None,4,2.2863738000014564,4,6.222062099994218,1,7.924059800003306,,,,,,,,,,,,,,,,,,,,1,001,2025-09-04_13h24.29.915,TEST_eye_tracker,2024.1.5,None,2025-09-04 13h24.44.470444 +0200,
25,C:\Users\id05278\Desktop\MLLM matteo\Task and screenshots\experiment-20250603T085947Z-1-001\experiment\responses_files\prompt_25.xlsx,C:\Users\id05278\Desktop\MLLM matteo\Task and screenshots\experiment-20250603T085947Z-1-001\experiment\responses_files\img_prompt_25.jpg,Could you give a blow-by-blow description of the image?,25,25.1,"The image shows a meal arrangement on a patterned textile surface. At the center is a white, round plate that contains an assortment of food items. There's a can of Fanta with an orange flavor, which seems to be the drink of choice. The food items include what appears to be pasta shells, neatly arranged on one side of the plate, and orange wedges with some of the peel still attached, placed on the opposite side. Additionally, there are orange-colored crackers, contributing to the color theme, and a whole, unpeeled carrot lying beside the other items on the plate. The background textile has a floral pattern with a mix of vibrant colors, adding a decorative backdrop to the meal presentation.",3,gpt-4v,0,1,1,24,0,1,1,0,288.88312689999293,,,,,,,,,,,,,,,,,,,,,,,,,,,288.8566376999952,Could you give a blow-by-blow description of the image?,"The image shows a meal arrangement on a patterned textile surface. At the center is a white, round plate that contains an assortment of food items. There's a can of Fanta with an orange flavor, which seems to be the drink of choice. The food items include what appears to be pasta shells, neatly arranged on one side of the plate, and orange wedges with some of the peel still attached, placed on the opposite side. Additionally, there are orange-colored crackers, contributing to the color theme, and a whole, unpeeled carrot lying beside the other items on the plate. The background textile has a floral pattern with a mix of vibrant colors, adding a decorative backdrop to the meal presentation.",288.88312689999293,289.88409259999753,289.88411779999296,289.9181269999972,352.3192843999932,space,62.3964241000067,None,352.53494689999934,352.5758926999988,352.5758926999988,352.5758926999988,352.5758926999988,359.58346729999903,359.58346729999903,359.86061809999956,space,0.250339600002917,None,5,2.4782260000065435,5,4.682676600001287,1,6.982259200005501,,,,,,,,,,,,,,,,,,,,1,001,2025-09-04_13h24.29.915,TEST_eye_tracker,2024.1.5,None,2025-09-04 13h24.44.470444 +0200,
25,C:\Users\id05278\Desktop\MLLM matteo\Task and screenshots\experiment-20250603T085947Z-1-001\experiment\responses_files\prompt_25.xlsx,C:\Users\id05278\Desktop\MLLM matteo\Task and screenshots\experiment-20250603T085947Z-1-001\experiment\responses_files\img_prompt_25.jpg,Could you give a blow-by-blow description of the image?,,,0.888,,,0,1,1,24,,,,,,,,,,,,,,,,,,,,,,,,,,,,,,,,,Could you give a blow-by-blow description of the image?,0.888,,,,,,,,,,,,,,,,,,,,,,,,,,359.91412449999916,359.9291372999942,359.9291372999942,361.78367819999403,361.78367819999403,362.38579559999926,2,1.8023259999972652,space,0.5935329999992973,None,,,,,,,,,1,001,2025-09-04_13h24.29.915,TEST_eye_tracker,2024.1.5,None,2025-09-04 13h24.44.470444 +0200,
1,C:\Users\id05278\Desktop\MLLM matteo\Task and screenshots\experiment-20250603T085947Z-1-001\experiment\responses_files\prompt_1.xlsx,C:\Users\id05278\Desktop\MLLM matteo\Task and screenshots\experiment-20250603T085947Z-1-001\experiment\responses_files\img_prompt_1.jpg,What is the name of the school mentioned in the image?,1,1.1,The name of the school mentioned in the image is Witch School.,5,Qwen-VL-Chat,0,2,2,0,0,0,0,0,378.6033208999943,,,,,,,,,,,,,,,,362.4580941999957,362.46877879999374,362.98500289999356,362.98501479999686,363.01861899999494,363.01861899999494,363.01861899999494,378.1205561999959,space,15.071769200003473,None,378.59453999999823,What is the name of the school mentioned in the image?,The name of the school mentioned in the image is Witch School.,378.6033208999943,379.5834806999992,379.58349219999945,379.6179611999978,385.11767749999854,space,5.479279399994994,None,385.3152940999935,385.3552234999952,385.3552234999952,385.3552234999952,385.3552234999952,389.68371599999955,389.68371599999955,390.7222471999994,space,1.013602200000605,None,5,1.7010897000000114,5,2.666715600003954,1,4.304299200004607,,,,,,,,,,,,,,,,,,,,1,001,2025-09-04_13h24.29.915,TEST_eye_tracker,2024.1.5,None,2025-09-04 13h24.44.470444 +0200,
1,C:\Users\id05278\Desktop\MLLM matteo\Task and screenshots\experiment-20250603T085947Z-1-001\experiment\responses_files\prompt_1.xlsx,C:\Users\id05278\Desktop\MLLM matteo\Task and screenshots\experiment-20250603T085947Z-1-001\experiment\responses_files\img_prompt_1.jpg,What is the name of the school mentioned in the image?,1,1.2,"The image shows a book called "Witch School" with an old witch's hat on it. It has been written by a person named "J." and appears to be published by a company known as "The Witches' Hat Company," which may have multiple titles under that name.",2,VisualGLM-6b,0,2,2,0,0,1,1,1,390.7499467999951,,,,,,,,,,,,,,,,,,,,,,,,,,,390.7227860999992,What is the name of the school mentioned in the image?,"The image shows a book called "Witch School" with an old witch's hat on it. It has been written by a person named "J." and appears to be published by a company known as "The Witches' Hat Company," which may have multiple titles under that name.",390.7499467999951,391.7502194999979,391.7502336999969,391.7846606999956,418.18417559999943,space,26.393420000000333,None,418.385214599999,418.4246242999943,418.4246242999943,418.4246242999943,418.4246242999943,424.551718799994,424.551718799994,425.2228507999971,space,0.6345995000010589,None,5,2.4954612999936217,4,4.899934199995187,1,6.101913700003934,,,,,,,,,,,,,,,,,,,,1,001,2025-09-04_13h24.29.915,TEST_eye_tracker,2024.1.5,None,2025-09-04 13h24.44.470444 +0200,
1,C:\Users\id05278\Desktop\MLLM matteo\Task and screenshots\experiment-20250603T085947Z-1-001\experiment\responses_files\prompt_1.xlsx,C:\Users\id05278\Desktop\MLLM matteo\Task and screenshots\experiment-20250603T085947Z-1-001\experiment\responses_files\img_prompt_1.jpg,What is the name of the school mentioned in the image?,,,0.888,,,0,2,2,0,,,,,,,,,,,,,,,,,,,,,,,,,,,,,,,,,What is the name of the school mentioned in the image?,0.888,,,,,,,,,,,,,,,,,,,,,,,,,,425.27560529999755,425.29057539999485,425.29057539999485,427.9167967999965,427.9167967999965,428.2191307999965,1,2.5738875000024564,space,0.2765402999939397,None,,,,,,,,,1,001,2025-09-04_13h24.29.915,TEST_eye_tracker,2024.1.5,None,2025-09-04 13h24.44.470444 +0200,
8,C:\Users\id05278\Desktop\MLLM matteo\Task and screenshots\experiment-20250603T085947Z-1-001\experiment\responses_files\prompt_8.xlsx,C:\Users\id05278\Desktop\MLLM matteo\Task and screenshots\experiment-20250603T085947Z-1-001\experiment\responses_files\img_prompt_8.jpg,What are the prominent objects in the image?,8,8.1,"The prominent objects in the image are a train and a train station. The train is traveling down the tracks, and the train station is situated next to the tracks.",2,LLaVA-RLHF-7b-v1.5-224,0,3,3,7,0,0,0,0,480.41737699999794,,,,,,,,,,,,,,,,428.28503759999876,428.29561889999604,428.78396089999296,428.7839756999965,428.8187570999944,428.8187570999944,428.8187570999944,480.01854789999925,space,51.16781440000341,None,480.4093794999935,What are the prominent objects in the image?,"The prominent objects in the image are a train and a train station. The train is traveling down the tracks, and the train station is situated next to the tracks.",480.41737699999794,481.41729009999835,481.4173198999997,481.450503,494.51868779999495,space,13.064190700002655,None,494.7183103999996,494.7586957999956,494.7586957999956,494.7586957999956,494.7586957999956,505.11704839999584,505.11704839999584,505.4564109999992,space,0.30095600000640843,None,4,6.2284975000002305,4,8.864534200001799,1,10.333229700001539,,,,,,,,,,,,428.8187570999944,,,,,,,,1,001,2025-09-04_13h24.29.915,TEST_eye_tracker,2024.1.5,None,2025-09-04 13h24.44.470444 +0200,
8,C:\Users\id05278\Desktop\MLLM matteo\Task and screenshots\experiment-20250603T085947Z-1-001\experiment\responses_files\prompt_8.xlsx,C:\Users\id05278\Desktop\MLLM matteo\Task and screenshots\experiment-20250603T085947Z-1-001\experiment\responses_files\img_prompt_8.jpg,What are the prominent objects in the image?,8,8.2,"The prominent objects in the image include a train, a station platform, and a train station.",4,fuyu-8b,0,3,3,7,0,1,1,1,505.48369439999806,,,,,,,,,,,,,,,,,,,,,,,,,,,505.4570378999997,What are the prominent objects in the image?,"The prominent objects in the image include a train, a station platform, and a train station.",505.48369439999806,506.4838296999951,506.483842799993,506.5172617999997,512.6857555999959,space,6.148786199999449,None,512.8876695999934,512.9266884999961,512.9266884999961,512.9266884999961,512.9266884999961,522.3184554999971,522.3184554999971,522.8898320999942,space,0.5471849000023212,None,5,1.7593281000008574,5,7.427883600001223,1,9.367010399997525,,,,,,,,,,,,,,,,,,,,1,001,2025-09-04_13h24.29.915,TEST_eye_tracker,2024.1.5,None,2025-09-04 13h24.44.470444 +0200,
8,C:\Users\id05278\Desktop\MLLM matteo\Task and screenshots\experiment-20250603T085947Z-1-001\experiment\responses_files\prompt_8.xlsx,C:\Users\id05278\Desktop\MLLM matteo\Task and screenshots\experiment-20250603T085947Z-1-001\experiment\responses_files\img_prompt_8.jpg,What are the prominent objects in the image?,,,0.888,,,0,3,3,7,,,,,,,,,,,,,,,,,,,,,,,,,,,,,,,,,What are the prominent objects in the image?,0.888,,,,,,,,,,,,,,,,,,,,,,,,,,522.949205799996,522.9637218999997,522.9637218999997,524.3836228999935,524.3836228999935,524.652628099997,2,1.3702933000022313,space,0.24993650000396883,None,,,,,,,,,1,001,2025-09-04_13h24.29.915,TEST_eye_tracker,2024.1.5,None,2025-09-04 13h24.44.470444 +0200,
30,C:\Users\id05278\Desktop\MLLM matteo\Task and screenshots\experiment-20250603T085947Z-1-001\experiment\responses_files\prompt_30.xlsx,C:\Users\id05278\Desktop\MLLM matteo\Task and screenshots\experiment-20250603T085947Z-1-001\experiment\responses_files\img_prompt_30.jpg,What is the main topic of the report mentioned in the image?,30,30.1,"The main topic of the report mentioned in the image is "Access to Justice for Internally Displaced and Ethnic Minority Women." The report appears to be an analytical study conducted in 2015, focusing on the challenges and issues faced by women who are internally displaced or belong to ethnic minorities in accessing justice.",4.666666666666667,gpt-4v,0,4,4,29,0,0,0,0,562.2906528999956,,,,,,,,,,,,,,,,524.7215569999971,524.731678199998,525.2174946999949,525.2175078,525.2516891999985,525.2516891999985,525.2516891999985,562.018931599996,space,36.7583444999982,None,562.2820954999988,What is the main topic of the report mentioned in the image?,"The main topic of the report mentioned in the image is "Access to Justice for Internally Displaced and Ethnic Minority Women." The report appears to be an analytical study conducted in 2015, focusing on the challenges and issues faced by women who are internally displaced or belong to ethnic minorities in accessing justice.",562.2906528999956,563.2838691999932,563.2838964999974,563.3185797999977,563.4847833999956,space,0.1400052000026335,None,563.6891652999984,563.7285774999982,563.7285774999982,563.7285774999982,563.7285774999982,570.2504509999999,570.2504509999999,571.0895799999998,space,0.8087043999985326,None,4,3.89140999999654,4,5.4598635000002105,1,6.4966416000024765,,,,,,,,,,,,525.2516891999985,,,,,,,,1,001,2025-09-04_13h24.29.915,TEST_eye_tracker,2024.1.5,None,2025-09-04 13h24.44.470444 +0200,
30,C:\Users\id05278\Desktop\MLLM matteo\Task and screenshots\experiment-20250603T085947Z-1-001\experiment\responses_files\prompt_30.xlsx,C:\Users\id05278\Desktop\MLLM matteo\Task and screenshots\experiment-20250603T085947Z-1-001\experiment\responses_files\img_prompt_30.jpg,What is the main topic of the report mentioned in the image?,30,30.2,"The purple color image shows a woman standing on top of a mountain, holding a book. She has long hair and wears a black dress with white sleeves. The background appears to be a dark forest or a deep blue sky.",2.333333333333333,VisualGLM-6b,0,4,4,29,0,1,1,1,571.1173933999962,,,,,,,,,,,,,,,,,,,,,,,,,,,571.0901528999966,What is the main topic of the report mentioned in the image?,"The purple color image shows a woman standing on top of a mountain, holding a book. She has long hair and wears a black dress with white sleeves. The background appears to be a dark forest or a deep blue sky.",571.1173933999962,572.1170939999938,572.1171076999963,572.1504045999973,590.7515099999946,space,18.579559599995264,None,590.9533808999986,590.992270099996,590.992270099996,590.992270099996,590.992270099996,595.4179548999964,595.4179548999964,596.1611871999994,space,0.7114729000022635,None,1,1.5936642000015127,1,2.928931599999487,1,4.399444299997413,,,,,,,,,,,,,,,,,,,,1,001,2025-09-04_13h24.29.915,TEST_eye_tracker,2024.1.5,None,2025-09-04 13h24.44.470444 +0200,
30,C:\Users\id05278\Desktop\MLLM matteo\Task and screenshots\experiment-20250603T085947Z-1-001\experiment\responses_files\prompt_30.xlsx,C:\Users\id05278\Desktop\MLLM matteo\Task and screenshots\experiment-20250603T085947Z-1-001\experiment\responses_files\img_prompt_30.jpg,What is the main topic of the report mentioned in the image?,,,0.888,,,0,4,4,29,,,,,,,,,,,,,,,,,,,,,,,,,,,,,,,,,What is the main topic of the report mentioned in the image?,0.888,,,,,,,,,,,,,,,,,,,,,,,,,,596.2307987999957,596.246336199998,596.246336199998,597.9839416999966,597.9839416999966,598.5861268999943,1,1.6857034000058775,space,0.5700429999997141,None,,,,,,,,,1,001,2025-09-04_13h24.29.915,TEST_eye_tracker,2024.1.5,None,2025-09-04 13h24.44.470444 +0200,
24,C:\Users\id05278\Desktop\MLLM matteo\Task and screenshots\experiment-20250603T085947Z-1-001\experiment\responses_files\prompt_24.xlsx,C:\Users\id05278\Desktop\MLLM matteo\Task and screenshots\experiment-20250603T085947Z-1-001\experiment\responses_files\img_prompt_24.jpg,What's happening in the scene?,24,24.1,"In this scene, there is a person reclining on a couch in what appears to be a living room with the lights dimmed. They seem relaxed, possibly watching TV or looking at a mobile device. The individual has one leg crossed over the other and is holding a small dog in their lap, suggesting a moment of rest and companionship. The room is cluttered, with various items strewn about, including on the kitchen counter and the coffee table. This setting gives the impression of a casual, lived-in space where someone is unwinding after a day's activities. The overall atmosphere is one of domestic life and informality.",1,gpt-4v,0,5,5,23,0,0,0,0,609.1716903999986,,,,,,,,,,,,,,,,598.652537199996,598.662768299997,599.1510117999933,599.1510248999984,599.185576799995,599.185576799995,599.185576799995,608.686666799993,space,9.47215409999626,None,609.1620149999944,What's happening in the scene?,"In this scene, there is a person reclining on a couch in what appears to be a living room with the lights dimmed. They seem relaxed, possibly watching TV or looking at a mobile device. The individual has one leg crossed over the other and is holding a small dog in their lap, suggesting a moment of rest and companionship. The room is cluttered, with various items strewn about, including on the kitchen counter and the coffee table. This setting gives the impression of a casual, lived-in space where someone is unwinding after a day's activities. The overall atmosphere is one of domestic life and informality.",609.1716903999986,610.1506556999957,610.1506690999959,610.1853069999997,651.518035999994,space,41.305457299997215,None,651.7280205999996,651.7687616999974,651.7687616999974,651.7687616999974,651.7687616999974,659.450516799996,659.450516799996,660.4564221999972,space,0.9746754000007058,None,3,2.419656699996267,3,5.321433099998103,1,7.656901000002108,,,,,,,,,,,,599.185576799995,,,,,,,,1,001,2025-09-04_13h24.29.915,TEST_eye_tracker,2024.1.5,None,2025-09-04 13h24.44.470444 +0200,
24,C:\Users\id05278\Desktop\MLLM matteo\Task and screenshots\experiment-20250603T085947Z-1-001\experiment\responses_files\prompt_24.xlsx,C:\Users\id05278\Desktop\MLLM matteo\Task and screenshots\experiment-20250603T085947Z-1-001\experiment\responses_files\img_prompt_24.jpg,What's happening in the scene?,24,24.2,"The image depicts a man and a woman sitting on a couch in a living room. They are facing each other and appear to be engaged in a conversation or watching something together. The couch is positioned in the center of the room, with a dining table and a kitchen area visible in the background. There are several objects scattered around the room, including a TV, a laptop, a cell phone, and a few bottles. A refrigerator can be seen in the kitchen area, and a microwave is also present. The living room is furnished with a chair and a potted plant, adding a touch of greenery to the space.",3,LLaVA-RLHF-7b-v1.5-224,0,5,5,23,0,1,1,1,660.483963199993,,,,,,,,,,,,,,,,,,,,,,,,,,,660.4569876999958,What's happening in the scene?,"The image depicts a man and a woman sitting on a couch in a living room. They are facing each other and appear to be engaged in a conversation or watching something together. The couch is positioned in the center of the room, with a dining table and a kitchen area visible in the background. There are several objects scattered around the room, including a TV, a laptop, a cell phone, and a few bottles. A refrigerator can be seen in the kitchen area, and a microwave is also present. The living room is furnished with a chair and a potted plant, adding a touch of greenery to the space.",660.483963199993,661.4853097999949,661.485325799993,661.5176438999988,694.2518917999987,space,32.70859410000412,None,694.4635047999982,694.5055720999953,694.5055720999953,694.5055720999953,694.5055720999953,701.3838540999932,701.3838540999932,702.156611499995,space,0.7543332999994163,None,4,1.6532531999982893,4,4.31891419999738,1,6.854067299995222,,,,,,,,,,,,,,,,,,,,1,001,2025-09-04_13h24.29.915,TEST_eye_tracker,2024.1.5,None,2025-09-04 13h24.44.470444 +0200,
24,C:\Users\id05278\Desktop\MLLM matteo\Task and screenshots\experiment-20250603T085947Z-1-001\experiment\responses_files\prompt_24.xlsx,C:\Users\id05278\Desktop\MLLM matteo\Task and screenshots\experiment-20250603T085947Z-1-001\experiment\responses_files\img_prompt_24.jpg,What's happening in the scene?,,,0.888,,,0,5,5,23,,,,,,,,,,,,,,,,,,,,,,,,,,,,,,,,,What's happening in the scene?,0.888,,,,,,,,,,,,,,,,,,,,,,,,,,702.2245183999985,702.2419398999991,702.2419398999991,704.0172521999993,704.0172521999993,704.5570197999987,2,1.7258115000004182,space,0.5119999000016833,None,,,,,,,,,1,001,2025-09-04_13h24.29.915,TEST_eye_tracker,2024.1.5,None,2025-09-04 13h24.44.470444 +0200,
11,C:\Users\id05278\Desktop\MLLM matteo\Task and screenshots\experiment-20250603T085947Z-1-001\experiment\responses_files\prompt_11.xlsx,C:\Users\id05278\Desktop\MLLM matteo\Task and screenshots\experiment-20250603T085947Z-1-001\experiment\responses_files\img_prompt_11.jpg,What color is the predominant airplane on display?,11,11.1,The predominant airplane on display is blue.,2,llava1.5-13b,0,6,6,10,0,0,0,0,718.6058560999954,,,,,,,,,,,,,,,,704.6289068999977,704.6407312999945,705.152651599994,705.1526787999974,705.1851479999968,705.1851479999968,705.1851479999968,718.153679199997,space,12.960927399995853,None,718.5979066999935,What color is the predominant airplane on display?,The predominant airplane on display is blue.,718.6058560999954,719.6199337999933,719.619963899997,719.650727399996,723.0515227999931,space,3.3833787000039592,None,723.2487417999946,723.2875456999973,723.2875456999973,723.2875456999973,723.2875456999973,725.9839278999934,725.9839278999934,727.3908877999929,space,1.3704340999975102,None,5,0.9989615999948,5,1.6349855000007665,1,2.6701501999996253,,,,,,,,,,,,,,,,,,,,1,001,2025-09-04_13h24.29.915,TEST_eye_tracker,2024.1.5,None,2025-09-04 13h24.44.470444 +0200,
11,C:\Users\id05278\Desktop\MLLM matteo\Task and screenshots\experiment-20250603T085947Z-1-001\experiment\responses_files\prompt_11.xlsx,C:\Users\id05278\Desktop\MLLM matteo\Task and screenshots\experiment-20250603T085947Z-1-001\experiment\responses_files\img_prompt_11.jpg,What color is the predominant airplane on display?,11,11.2,"The predominant airplane on display is blue, with additional stripes in red, white, and green.",3.333333333333333,gpt-4v,0,6,6,10,0,1,1,1,727.417385899993,,,,,,,,,,,,,,,,,,,,,,,,,,,727.3914459999942,What color is the predominant airplane on display?,"The predominant airplane on display is blue, with additional stripes in red, white, and green.",727.417385899993,728.4174050999936,728.4174189999976,728.4522089999955,738.2199536999979,space,9.757735600003798,None,738.4189778,738.4589891999931,738.4589891999931,738.4589891999931,738.4589891999931,742.3174256999991,742.3174256999991,743.4251345999946,space,1.0765773000021,None,5,1.7290737000002991,5,2.563649900002929,1,3.8325314999965485,,,,,,,,,,,,,,,,,,,,1,001,2025-09-04_13h24.29.915,TEST_eye_tracker,2024.1.5,None,2025-09-04 13h24.44.470444 +0200,
11,C:\Users\id05278\Desktop\MLLM matteo\Task and screenshots\experiment-20250603T085947Z-1-001\experiment\responses_files\prompt_11.xlsx,C:\Users\id05278\Desktop\MLLM matteo\Task and screenshots\experiment-20250603T085947Z-1-001\experiment\responses_files\img_prompt_11.jpg,What color is the predominant airplane on display?,,,0.888,,,0,6,6,10,,,,,,,,,,,,,,,,,,,,,,,,,,,,,,,,,What color is the predominant airplane on display?,0.888,,,,,,,,,,,,,,,,,,,,,,,,,,743.4952141999966,743.5115643999961,743.5115643999961,745.6508085999958,745.6508085999958,746.1533383999995,2,2.088579099996423,space,0.4867731999984244,None,,,,,,,,,1,001,2025-09-04_13h24.29.915,TEST_eye_tracker,2024.1.5,None,2025-09-04 13h24.44.470444 +0200,
21,C:\Users\id05278\Desktop\MLLM matteo\Task and screenshots\experiment-20250603T085947Z-1-001\experiment\responses_files\prompt_21.xlsx,C:\Users\id05278\Desktop\MLLM matteo\Task and screenshots\experiment-20250603T085947Z-1-001\experiment\responses_files\img_prompt_21.jpg,Can you find the flock of birds flying over the cloudy sky?,21,21.2,"No, there are no birds in the image. The image features a man on a surfboard, which is placed on a pole or a stick, and he is riding it in the air. The sky in the image is blue and cloudy, but there are no birds visible. The focus of the image is on the man and his surfboard, showcasing his skill and balance as he performs his trick. The presence of a surfboard and a man riding it on a stick or pole suggests that this could be a creative or artistic representation of surfing, or perhaps a unique form of entertainment or advertisement. The image captures the essence of surfing, highlighting the excitement and thrill that comes with the sport, as well as the skill and agility required to perform such a feat.",2.333333333333333,LLaVA-RLHF-13b-v1.5-336,0,7,7,20,0,0,0,1,766.7522690999976,,,,,,,,,,,,,,,,746.2218165999948,746.2320630999966,746.7177756999954,746.7177928999954,746.7520840999932,746.7520840999932,746.7520840999932,766.3866565999997,space,19.633317700005136,None,766.7427603999968,Can you find the flock of birds flying over the cloudy sky?,"No, there are no birds in the image. The image features a man on a surfboard, which is placed on a pole or a stick, and he is riding it in the air. The sky in the image is blue and cloudy, but there are no birds visible. The focus of the image is on the man and his surfboard, showcasing his skill and balance as he performs his trick. The presence of a surfboard and a man riding it on a stick or pole suggests that this could be a creative or artistic representation of surfing, or perhaps a unique form of entertainment or advertisement. The image captures the essence of surfing, highlighting the excitement and thrill that comes with the sport, as well as the skill and agility required to perform such a feat.",766.7522690999976,767.7508046999938,767.7508235999994,767.7855688999989,796.6868438999954,space,28.880868100000953,None,796.9004087999929,796.9392715999929,796.9392715999929,796.9392715999929,796.9392715999929,801.7173832999979,801.7173832999979,802.0258039999972,space,0.3001023000033456,None,5,1.6797207999989041,5,3.3831008999986807,1,4.7576069999995525,,,,,,,,,,,,746.7520840999932,,,,,,,,1,001,2025-09-04_13h24.29.915,TEST_eye_tracker,2024.1.5,None,2025-09-04 13h24.44.470444 +0200,
21,C:\Users\id05278\Desktop\MLLM matteo\Task and screenshots\experiment-20250603T085947Z-1-001\experiment\responses_files\prompt_21.xlsx,C:\Users\id05278\Desktop\MLLM matteo\Task and screenshots\experiment-20250603T085947Z-1-001\experiment\responses_files\img_prompt_21.jpg,Can you find the flock of birds flying over the cloudy sky?,21,21.1,"There are no birds or clouds visible in the photo you provided. The image shows a toy figure of a surfer on a surfboard against a clear blue sky. If you're looking for a photo with birds and clouds, you may want to try a different image or specify another scene you'd like to see.",1.333333333333333,gpt-4v,0,7,7,20,0,1,1,0,802.050679299995,,,,,,,,,,,,,,,,,,,,,,,,,,,802.0263775999993,Can you find the flock of birds flying over the cloudy sky?,"There are no birds or clouds visible in the photo you provided. The image shows a toy figure of a surfer on a surfboard against a clear blue sky. If you're looking for a photo with birds and clouds, you may want to try a different image or specify another scene you'd like to see.",802.050679299995,803.0508293999956,803.0508418999962,803.0844446999981,823.618230299995,space,20.50147979999747,None,823.8219611999957,823.8615761999972,823.8615761999972,823.8615761999972,823.8615761999972,826.750936299999,826.750936299999,829.2234494999939,space,2.4353178999954253,None,3,1.3255547000007937,3,2.1322314999997616,1,2.8657113000008394,,,,,,,,,,,,,,,,,,,,1,001,2025-09-04_13h24.29.915,TEST_eye_tracker,2024.1.5,None,2025-09-04 13h24.44.470444 +0200,
21,C:\Users\id05278\Desktop\MLLM matteo\Task and screenshots\experiment-20250603T085947Z-1-001\experiment\responses_files\prompt_21.xlsx,C:\Users\id05278\Desktop\MLLM matteo\Task and screenshots\experiment-20250603T085947Z-1-001\experiment\responses_files\img_prompt_21.jpg,Can you find the flock of birds flying over the cloudy sky?,,,0.888,,,0,7,7,20,,,,,,,,,,,,,,,,,,,,,,,,,,,,,,,,,Can you find the flock of birds flying over the cloudy sky?,0.888,,,,,,,,,,,,,,,,,,,,,,,,,,829.3153281999985,829.3305745999969,829.3305745999969,830.4840994999977,830.4840994999977,830.9867244999987,1,1.1024898999967263,space,0.4785303999960888,None,,,,,,,,,1,001,2025-09-04_13h24.29.915,TEST_eye_tracker,2024.1.5,None,2025-09-04 13h24.44.470444 +0200,
22,C:\Users\id05278\Desktop\MLLM matteo\Task and screenshots\experiment-20250603T085947Z-1-001\experiment\responses_files\prompt_22.xlsx,C:\Users\id05278\Desktop\MLLM matteo\Task and screenshots\experiment-20250603T085947Z-1-001\experiment\responses_files\img_prompt_22.jpg,What is the website mentioned in the image?,22,22.2,The website mentioned in the image is www.tamilkavithaial.com.,4.333333333333333,Qwen-VL-Chat,0,8,8,21,0,0,0,1,848.8459897999928,,,,,,,,,,,,,,,,831.0564754999941,831.0670674999928,831.5523758999989,831.5524108999962,831.5858847999989,831.5858847999989,831.5858847999989,848.3862276,space,16.769414399997913,None,848.8356451999935,What is the website mentioned in the image?,The website mentioned in the image is www.tamilkavithaial.com.,848.8459897999928,849.8509559999948,849.8509795999998,849.8840081999952,855.2847523999953,space,5.399043400000664,None,855.482606599995,855.5232173999975,855.5232173999975,855.5232173999975,855.5232173999975,858.9841683999985,858.9841683999985,859.4569109999939,space,0.4583494999969844,None,5,1.5992846000008285,5,2.499352499995439,1,3.4351158999998006,,,,,,,,,,,,831.5858847999989,,,,,,,,1,001,2025-09-04_13h24.29.915,TEST_eye_tracker,2024.1.5,None,2025-09-04 13h24.44.470444 +0200,
22,C:\Users\id05278\Desktop\MLLM matteo\Task and screenshots\experiment-20250603T085947Z-1-001\experiment\responses_files\prompt_22.xlsx,C:\Users\id05278\Desktop\MLLM matteo\Task and screenshots\experiment-20250603T085947Z-1-001\experiment\responses_files\img_prompt_22.jpg,What is the website mentioned in the image?,22,22.1,"The website mentioned in the image is "Google". It appears to be a search engine, and it has an interesting photo of a girl standing next to a flower with a blue sky behind her. There are also words written on the page that mention Google as well.",2,VisualGLM-6b,0,8,8,21,0,1,1,0,859.4842767999944,,,,,,,,,,,,,,,,,,,,,,,,,,,859.4575113999963,What is the website mentioned in the image?,"The website mentioned in the image is "Google". It appears to be a search engine, and it has an interesting photo of a girl standing next to a flower with a blue sky behind her. There are also words written on the page that mention Google as well.",859.4842767999944,860.4847571999999,860.484770899995,860.5190514999995,871.9188504999984,space,11.370768500004488,None,872.1262537999937,872.1656004999968,872.1656004999968,872.1656004999968,872.1656004999968,875.8855025999947,875.8855025999947,877.0571427999967,space,1.1563295000014477,None,1,1.1224313999991864,1,2.358143099998415,1,3.6954060999996727,,,,,,,,,,,,,,,,,,,,1,001,2025-09-04_13h24.29.915,TEST_eye_tracker,2024.1.5,None,2025-09-04 13h24.44.470444 +0200,
22,C:\Users\id05278\Desktop\MLLM matteo\Task and screenshots\experiment-20250603T085947Z-1-001\experiment\responses_files\prompt_22.xlsx,C:\Users\id05278\Desktop\MLLM matteo\Task and screenshots\experiment-20250603T085947Z-1-001\experiment\responses_files\img_prompt_22.jpg,What is the website mentioned in the image?,,,0.888,,,0,8,8,21,,,,,,,,,,,,,,,,,,,,,,,,,,,,,,,,,What is the website mentioned in the image?,0.888,,,,,,,,,,,,,,,,,,,,,,,,,,877.1308239999998,877.1454573999945,877.1454573999945,879.5508012999999,879.5508012999999,880.253489799994,1,2.3532687000042642,space,0.6997766999993473,None,,,,,,,,,1,001,2025-09-04_13h24.29.915,TEST_eye_tracker,2024.1.5,None,2025-09-04 13h24.44.470444 +0200,
5,C:\Users\id05278\Desktop\MLLM matteo\Task and screenshots\experiment-20250603T085947Z-1-001\experiment\responses_files\prompt_5.xlsx,C:\Users\id05278\Desktop\MLLM matteo\Task and screenshots\experiment-20250603T085947Z-1-001\experiment\responses_files\img_prompt_5.jpg,What are the key elements in this picture?,5,5.1,"The image features a man and a young boy sitting at a table, enjoying a meal together. The man is holding a doughnut, while the boy is holding a bagel. They are both sitting at the table, surrounded by various food items, including a plate of doughnuts, a bagel, and a cup of coffee. There are also a few other doughnuts scattered around the table, indicating that they are part of the meal. The scene is warm and inviting, showcasing a father and son enjoying a casual meal together.",4.333333333333333,instructblip-vicuna-13b,0,9,9,4,0,0,0,0,897.5284166999991,,,,,,,,,,,,,,,,880.3237095999939,880.3342376,880.8178668999972,880.817882299998,880.8526282999956,880.8526282999956,880.8526282999956,897.019827899996,space,16.141320100003213,None,897.5178511999984,What are the key elements in this picture?,"The image features a man and a young boy sitting at a table, enjoying a meal together. The man is holding a doughnut, while the boy is holding a bagel. They are both sitting at the table, surrounded by various food items, including a plate of doughnuts, a bagel, and a cup of coffee. There are also a few other doughnuts scattered around the table, indicating that they are part of the meal. The scene is warm and inviting, showcasing a father and son enjoying a casual meal together.",897.5284166999991,898.5175817999989,898.5175968999974,898.5510823999939,916.6535378999979,space,18.091834500002733,None,916.866864699994,916.906831799999,916.906831799999,916.906831799999,916.906831799999,923.0844501999964,923.0844501999964,923.7898976999932,space,0.6773193999979412,None,4,3.614868899996509,5,5.084067199997662,1,6.154067000003124,,,,,,,,,,,,880.8526282999956,,,,,,,,1,001,2025-09-04_13h24.29.915,TEST_eye_tracker,2024.1.5,None,2025-09-04 13h24.44.470444 +0200,
5,C:\Users\id05278\Desktop\MLLM matteo\Task and screenshots\experiment-20250603T085947Z-1-001\experiment\responses_files\prompt_5.xlsx,C:\Users\id05278\Desktop\MLLM matteo\Task and screenshots\experiment-20250603T085947Z-1-001\experiment\responses_files\img_prompt_5.jpg,What are the key elements in this picture?,5,5.2,"The main element of this image is a man and a young boy sitting at a table, enjoying breakfast together. They are both eating doughnuts with sprinkles on them while they enjoy their meal. This scene suggests that they might be spending time as family members or friends who share common interests such as food.",3.666666666666667,VisualGLM-6b,0,9,9,4,0,1,1,1,923.8175188999958,,,,,,,,,,,,,,,,,,,,,,,,,,,923.7904374999998,What are the key elements in this picture?,"The main element of this image is a man and a young boy sitting at a table, enjoying breakfast together. They are both eating doughnuts with sprinkles on them while they enjoy their meal. This scene suggests that they might be spending time as family members or friends who share common interests such as food.",923.8175188999958,924.8184718999983,924.8184884999937,924.8520536999931,948.7188125999965,space,23.86231019999832,None,948.9231958999953,948.9637997999962,948.9637997999962,948.9637997999962,948.9637997999962,953.651898899996,953.651898899996,954.5587457999936,space,0.8780228999967221,None,3,3.5586678000036045,2,2.3944989000010537,1,4.6627115000010235,,,,,,,,,,,,,,,,,,,,1,001,2025-09-04_13h24.29.915,TEST_eye_tracker,2024.1.5,None,2025-09-04 13h24.44.470444 +0200,
5,C:\Users\id05278\Desktop\MLLM matteo\Task and screenshots\experiment-20250603T085947Z-1-001\experiment\responses_files\prompt_5.xlsx,C:\Users\id05278\Desktop\MLLM matteo\Task and screenshots\experiment-20250603T085947Z-1-001\experiment\responses_files\img_prompt_5.jpg,What are the key elements in this picture?,,,0.888,,,0,9,9,4,,,,,,,,,,,,,,,,,,,,,,,,,,,,,,,,,What are the key elements in this picture?,0.888,,,,,,,,,,,,,,,,,,,,,,,,,,954.641114799997,954.6574121999947,954.6574121999947,955.6184997999953,955.6184997999953,956.2539062999931,1,0.9107013999964693,space,0.6079112000006717,None,,,,,,,,,1,001,2025-09-04_13h24.29.915,TEST_eye_tracker,2024.1.5,None,2025-09-04 13h24.44.470444 +0200,
12,C:\Users\id05278\Desktop\MLLM matteo\Task and screenshots\experiment-20250603T085947Z-1-001\experiment\responses_files\prompt_12.xlsx,C:\Users\id05278\Desktop\MLLM matteo\Task and screenshots\experiment-20250603T085947Z-1-001\experiment\responses_files\img_prompt_12.jpg,What is the man doing with the skateboard?,12,12.2,"The man is performing a skateboarding trick known as an "ollie." This is a fundamental skateboarding trick where the rider and board leap into the air without the use of the rider's hands. The trick is executed by snapping the tail of the skateboard down while jumping, which causes the board to pop into the air. It appears that he is doing this on a city street with buildings and clear blue skies in the background.",3.333333333333333,gpt-4v,0,10,10,11,0,0,0,1,965.3616177999938,,,,,,,,,,,,,,,,956.3229909999936,956.3321339999966,956.818131299995,956.8181437999956,956.8534904999979,956.8534904999979,956.8534904999979,964.854651499998,space,7.97321920000104,None,965.3512782999969,What is the man doing with the skateboard?,"The man is performing a skateboarding trick known as an "ollie." This is a fundamental skateboarding trick where the rider and board leap into the air without the use of the rider's hands. The trick is executed by snapping the tail of the skateboard down while jumping, which causes the board to pop into the air. It appears that he is doing this on a city street with buildings and clear blue skies in the background.",965.3616177999938,966.3509828999959,966.3509991999963,966.3853283999997,979.120908799996,space,12.712331099995936,None,979.3276856999946,979.3680564999959,979.3680564999959,979.3680564999959,979.3680564999959,984.7192646999974,984.7192646999974,985.4261414999928,space,0.690477700001793,None,4,2.386312299997371,4,3.790164799997001,1,5.324107300002652,,,,,,,,,,,,956.8534904999979,,,,,,,,1,001,2025-09-04_13h24.29.915,TEST_eye_tracker,2024.1.5,None,2025-09-04 13h24.44.470444 +0200,
12,C:\Users\id05278\Desktop\MLLM matteo\Task and screenshots\experiment-20250603T085947Z-1-001\experiment\responses_files\prompt_12.xlsx,C:\Users\id05278\Desktop\MLLM matteo\Task and screenshots\experiment-20250603T085947Z-1-001\experiment\responses_files\img_prompt_12.jpg,What is the man doing with the skateboard?,12,12.1,"The man is performing a trick on his skateboard, jumping in the air while riding it.",4.666666666666667,Qwen-VL-Chat,0,10,10,11,0,1,1,0,985.4523711999936,,,,,,,,,,,,,,,,,,,,,,,,,,,985.4267236999949,What is the man doing with the skateboard?,"The man is performing a trick on his skateboard, jumping in the air while riding it.",985.4523711999936,986.4511430999992,986.4511688999992,986.4844894999987,995.6186392999953,space,9.125990599997749,None,995.818317199999,995.8585801999943,995.8585801999943,995.8585801999943,995.8585801999943,1002.619159599999,1002.619159599999,1003.2586247999934,space,0.5999127999966731,None,4,3.2614570000005187,3,5.565211900000577,1,6.733844299997145,,,,,,,,,,,,,,,,,,,,1,001,2025-09-04_13h24.29.915,TEST_eye_tracker,2024.1.5,None,2025-09-04 13h24.44.470444 +0200,
12,C:\Users\id05278\Desktop\MLLM matteo\Task and screenshots\experiment-20250603T085947Z-1-001\experiment\responses_files\prompt_12.xlsx,C:\Users\id05278\Desktop\MLLM matteo\Task and screenshots\experiment-20250603T085947Z-1-001\experiment\responses_files\img_prompt_12.jpg,What is the man doing with the skateboard?,,,0.888,,,0,10,10,11,,,,,,,,,,,,,,,,,,,,,,,,,,,,,,,,,What is the man doing with the skateboard?,0.888,,,,,,,,,,,,,,,,,,,,,,,,,,1003.3387027999997,1003.3555355999997,1003.3555355999997,1004.7844804999986,1004.7844804999986,1005.6215233999974,1,1.3796786999955657,space,0.8337384999977075,None,,,,,,,,,1,001,2025-09-04_13h24.29.915,TEST_eye_tracker,2024.1.5,None,2025-09-04 13h24.44.470444 +0200,
26,C:\Users\id05278\Desktop\MLLM matteo\Task and screenshots\experiment-20250603T085947Z-1-001\experiment\responses_files\prompt_26.xlsx,C:\Users\id05278\Desktop\MLLM matteo\Task and screenshots\experiment-20250603T085947Z-1-001\experiment\responses_files\img_prompt_26.jpg,What is the purpose of the Om chanting mentioned in the image?,26,26.1,The purpose of the Om chanting mentioned in the image is to meditate and chant deep mantra chants for positive transformation.,3,Qwen-VL-Chat,0,11,11,25,0,0,0,0,1033.2701973999938,,,,,,,,,,,,,,,,1005.6934079999992,1005.7032208999954,1006.218998999997,1006.2190555999987,1006.2529278999937,1006.2529278999937,1006.2529278999937,1032.7535460999934,space,26.493106900001294,None,1033.2619896999968,What is the purpose of the Om chanting mentioned in the image?,The purpose of the Om chanting mentioned in the image is to meditate and chant deep mantra chants for positive transformation.,1033.2701973999938,1034.2524107999998,1034.252424499995,1034.286261299996,1040.1862077999976,space,5.876123399997596,None,1040.3843055999969,1040.423188899993,1040.423188899993,1040.423188899993,1040.423188899993,1044.1848459999965,1044.1848459999965,1044.6576294999977,space,0.44945069999812404,None,5,1.263773199993011,5,1.9677267000006395,1,3.7370783999940613,,,,,,,,,,,,,,,,,,,,1,001,2025-09-04_13h24.29.915,TEST_eye_tracker,2024.1.5,None,2025-09-04 13h24.44.470444 +0200,
26,C:\Users\id05278\Desktop\MLLM matteo\Task and screenshots\experiment-20250603T085947Z-1-001\experiment\responses_files\prompt_26.xlsx,C:\Users\id05278\Desktop\MLLM matteo\Task and screenshots\experiment-20250603T085947Z-1-001\experiment\responses_files\img_prompt_26.jpg,What is the purpose of the Om chanting mentioned in the image?,26,26.2,"The purpose of the Om chanting in the image is to promote positive transformation and meditation. The group of people is sitting in a circle, focusing on the chant, which is a deep mantra that helps them connect with their inner selves and achieve a state of mindfulness. This practice can lead to personal growth, relaxation, and stress reduction. The image also suggests that the Om chanting is being used as a tool for positive transformation, which can be achieved through meditation and mindfulness practices.",5,llava1.5-13b,0,11,11,25,0,1,1,1,1044.6845509999985,,,,,,,,,,,,,,,,,,,,,,,,,,,1044.6581607999979,What is the purpose of the Om chanting mentioned in the image?,"The purpose of the Om chanting in the image is to promote positive transformation and meditation. The group of people is sitting in a circle, focusing on the chant, which is a deep mantra that helps them connect with their inner selves and achieve a state of mindfulness. This practice can lead to personal growth, relaxation, and stress reduction. The image also suggests that the Om chanting is being used as a tool for positive transformation, which can be achieved through meditation and mindfulness practices.",1044.6845509999985,1045.6845901999986,1045.6846057999937,1045.719329099993,1068.152454899995,space,22.40260209999542,None,1068.3602430999963,1068.3992913999973,1068.3992913999973,1068.3992913999973,1068.3992913999973,1071.6511456999942,1071.6511456999942,1073.357792099996,space,1.670398700000078,None,5,1.290507699995942,5,2.0926605999993626,1,3.226925499999197,,,,,,,,,,,,,,,,,,,,1,001,2025-09-04_13h24.29.915,TEST_eye_tracker,2024.1.5,None,2025-09-04 13h24.44.470444 +0200,
26,C:\Users\id05278\Desktop\MLLM matteo\Task and screenshots\experiment-20250603T085947Z-1-001\experiment\responses_files\prompt_26.xlsx,C:\Users\id05278\Desktop\MLLM matteo\Task and screenshots\experiment-20250603T085947Z-1-001\experiment\responses_files\img_prompt_26.jpg,What is the purpose of the Om chanting mentioned in the image?,,,0.888,,,0,11,11,25,,,,,,,,,,,,,,,,,,,,,,,,,,,,,,,,,What is the purpose of the Om chanting mentioned in the image?,0.888,,,,,,,,,,,,,,,,,,,,,,,,,,1073.4448429999975,1073.4610268999968,1073.4610268999968,1076.5187709999955,1076.5187709999955,1077.1207844999954,2,3.0073100999943563,space,0.5785778999998001,None,,,,,,,,,1,001,2025-09-04_13h24.29.915,TEST_eye_tracker,2024.1.5,None,2025-09-04 13h24.44.470444 +0200,
9,C:\Users\id05278\Desktop\MLLM matteo\Task and screenshots\experiment-20250603T085947Z-1-001\experiment\responses_files\prompt_9.xlsx,C:\Users\id05278\Desktop\MLLM matteo\Task and screenshots\experiment-20250603T085947Z-1-001\experiment\responses_files\img_prompt_9.jpg,Describe the overall appearance and atmosphere of the bedroom in the image.,9,9.1,"The bedroom in the image has a modern and stylish appearance, featuring a large bed with white pillows and a white comforter. The room is dimly lit, creating a cozy and intimate atmosphere. The bed is positioned next to a wall, and there is a lamp on the nightstand, providing additional lighting in the room. The overall ambiance of the bedroom is inviting and comfortable, making it an ideal space for relaxation and rest.",2,llava1.5-13b,0,12,12,8,0,0,0,0,1089.2858091999951,,,,,,,,,,,,,,,,1077.194882799995,1077.2043632999994,1077.7182867999945,1077.7183279999954,1077.7528755999956,1077.7528755999956,1077.7528755999956,1088.821732299999,space,11.056787099994835,None,1089.2777165999942,Describe the overall appearance and atmosphere of the bedroom in the image.,"The bedroom in the image has a modern and stylish appearance, featuring a large bed with white pillows and a white comforter. The room is dimly lit, creating a cozy and intimate atmosphere. The bed is positioned next to a wall, and there is a lamp on the nightstand, providing additional lighting in the room. The overall ambiance of the bedroom is inviting and comfortable, making it an ideal space for relaxation and rest.",1089.2858091999951,1090.2847220999975,1090.2847374999983,1090.3205636999992,1121.1881517999936,space,30.833924999999,None,1121.3983848999997,1121.4365139999936,1121.4365139999936,1121.4365139999936,1121.4365139999936,1128.4179500999962,1128.4179500999962,1129.4570759999988,space,1.0240545000051497,None,4,4.252156499998819,4,5.785006300000532,1,6.955138000004808,,,,,,,,,,,,,,,,,,,,1,001,2025-09-04_13h24.29.915,TEST_eye_tracker,2024.1.5,None,2025-09-04 13h24.44.470444 +0200,
9,C:\Users\id05278\Desktop\MLLM matteo\Task and screenshots\experiment-20250603T085947Z-1-001\experiment\responses_files\prompt_9.xlsx,C:\Users\id05278\Desktop\MLLM matteo\Task and screenshots\experiment-20250603T085947Z-1-001\experiment\responses_files\img_prompt_9.jpg,Describe the overall appearance and atmosphere of the bedroom in the image.,9,9.2,"The bedroom in the image has a clean and minimalist appearance, featuring a large bed with white sheets and pillows, which gives it a fresh and inviting look. The room is well-lit, with a light on, creating a cozy atmosphere. The overall atmosphere of the bedroom is calm and relaxing, making it an ideal space for rest and rejuvenation.",4.333333333333333,Qwen-VL-Chat,0,12,12,8,0,1,1,1,1129.4845643999943,,,,,,,,,,,,,,,,,,,,,,,,,,,1129.457826699996,Describe the overall appearance and atmosphere of the bedroom in the image.,"The bedroom in the image has a clean and minimalist appearance, featuring a large bed with white sheets and pillows, which gives it a fresh and inviting look. The room is well-lit, with a light on, creating a cozy atmosphere. The overall atmosphere of the bedroom is calm and relaxing, making it an ideal space for rest and rejuvenation.",1129.4845643999943,1130.4851036999971,1130.4851347999938,1130.5182919,1144.8535037999973,space,14.331760599998233,None,1145.057571499994,1145.096617999996,1145.096617999996,1145.096617999996,1145.096617999996,1153.0514232999994,1153.0514232999994,1153.5573316999944,space,0.47008289999939734,None,2,3.323811399997794,2,6.12579089999781,1,7.929175000004761,,,,,,,,,,,,,,,,,,,,1,001,2025-09-04_13h24.29.915,TEST_eye_tracker,2024.1.5,None,2025-09-04 13h24.44.470444 +0200,
9,C:\Users\id05278\Desktop\MLLM matteo\Task and screenshots\experiment-20250603T085947Z-1-001\experiment\responses_files\prompt_9.xlsx,C:\Users\id05278\Desktop\MLLM matteo\Task and screenshots\experiment-20250603T085947Z-1-001\experiment\responses_files\img_prompt_9.jpg,Describe the overall appearance and atmosphere of the bedroom in the image.,,,0.888,,,0,12,12,8,,,,,,,,,,,,,,,,,,,,,,,,,,,,,,,,,Describe the overall appearance and atmosphere of the bedroom in the image.,0.888,,,,,,,,,,,,,,,,,,,,,,,,,,1153.652419099999,1153.6663307999988,1153.6663307999988,1155.218013699996,1155.218013699996,1155.553893999997,1,1.4990150000012363,space,0.32086819999676663,None,,,,,,,,,1,001,2025-09-04_13h24.29.915,TEST_eye_tracker,2024.1.5,None,2025-09-04 13h24.44.470444 +0200,
18,C:\Users\id05278\Desktop\MLLM matteo\Task and screenshots\experiment-20250603T085947Z-1-001\experiment\responses_files\prompt_18.xlsx,C:\Users\id05278\Desktop\MLLM matteo\Task and screenshots\experiment-20250603T085947Z-1-001\experiment\responses_files\img_prompt_18.jpg,What time does the clock on the building show?,18,18.1,The clock on the building shows approximately 3:00.,4,gpt-4v,0,13,13,17,0,0,0,0,1164.9945739999966,,,,,,,,,,,,,,,,1155.6284304999936,1155.637799499993,1156.151343599995,1156.151355199996,1156.1871519999986,1156.1871519999986,1156.1871519999986,1164.5547563999935,space,8.343442600002163,None,1164.9862083999978,What time does the clock on the building show?,The clock on the building shows approximately 3:00.,1164.9945739999966,1165.9847295999934,1165.9847441999955,1166.0192444999993,1169.0203551999948,space,2.983715599999414,None,1169.2157026999994,1169.2565693999932,1169.2565693999932,1169.2565693999932,1169.2565693999932,1174.4846196999933,1174.4846196999933,1174.8905215999985,space,0.3810767999966629,None,4,2.0981600000013714,4,4.435181500004546,1,5.20255460000044,,,,,,,,,,,,,,,,,,,,1,001,2025-09-04_13h24.29.915,TEST_eye_tracker,2024.1.5,None,2025-09-04 13h24.44.470444 +0200,
18,C:\Users\id05278\Desktop\MLLM matteo\Task and screenshots\experiment-20250603T085947Z-1-001\experiment\responses_files\prompt_18.xlsx,C:\Users\id05278\Desktop\MLLM matteo\Task and screenshots\experiment-20250603T085947Z-1-001\experiment\responses_files\img_prompt_18.jpg,What time does the clock on the building show?,18,18.2,The clock on the building shows 12:30.,4.666666666666667,Qwen-VL-Chat,0,13,13,17,0,1,1,1,1174.918990099999,,,,,,,,,,,,,,,,,,,,,,,,,,,1174.8910816999996,What time does the clock on the building show?,The clock on the building shows 12:30.,1174.918990099999,1175.9185304999992,1175.9185612999936,1175.9527420999948,1178.185429499994,space,2.217308499995852,None,1178.3810018999939,1178.4206587999943,1178.4206587999943,1178.4206587999943,1178.4206587999943,1181.984501699997,1181.984501699997,1182.357742399996,space,0.34567059999972116,None,1,1.6691057999996701,1,2.372409299998253,1,3.5376563999961945,,,,,,,,,,,,,,,,,,,,1,001,2025-09-04_13h24.29.915,TEST_eye_tracker,2024.1.5,None,2025-09-04 13h24.44.470444 +0200,
18,C:\Users\id05278\Desktop\MLLM matteo\Task and screenshots\experiment-20250603T085947Z-1-001\experiment\responses_files\prompt_18.xlsx,C:\Users\id05278\Desktop\MLLM matteo\Task and screenshots\experiment-20250603T085947Z-1-001\experiment\responses_files\img_prompt_18.jpg,What time does the clock on the building show?,,,0.888,,,0,13,13,17,,,,,,,,,,,,,,,,,,,,,,,,,,,,,,,,,What time does the clock on the building show?,0.888,,,,,,,,,,,,,,,,,,,,,,,,,,1182.453958099999,1182.4685365999976,1182.4685365999976,1184.1512848999992,1184.1512848999992,1184.3872114999976,1,1.630662099996698,space,0.2266751999995904,None,,,,,,,,,1,001,2025-09-04_13h24.29.915,TEST_eye_tracker,2024.1.5,None,2025-09-04 13h24.44.470444 +0200,
17,C:\Users\id05278\Desktop\MLLM matteo\Task and screenshots\experiment-20250603T085947Z-1-001\experiment\responses_files\prompt_17.xlsx,C:\Users\id05278\Desktop\MLLM matteo\Task and screenshots\experiment-20250603T085947Z-1-001\experiment\responses_files\img_prompt_17.jpg,What is the full name of the institute mentioned in the image?,17,17.1,Julius Kuhn-Institutt,3.333333333333333,fuyu-8b,0,14,14,16,0,0,0,0,1195.6052942999959,,,,,,,,,,,,,,,,1184.4570884999994,1184.466257,1184.9519956999939,1184.952008399996,1184.986652099993,1184.986652099993,1184.986652099993,1195.2881431999995,space,10.27992720000475,None,1195.5972389999952,What is the full name of the institute mentioned in the image?,Julius Kuhn-Institutt,1195.6052942999959,1196.584809699998,1196.5848213999998,1196.619002899999,1198.618916099993,space,1.9834579000016674,None,1198.8146323999972,1198.8557916999998,1198.8557916999998,1198.8557916999998,1198.8557916999998,1204.3180706999992,1204.3180706999992,1204.6243236999944,space,0.2682892000011634,None,5,2.4332082999972044,4,3.301868700000341,1,5.437029999993683,,,,,,,,,,,,1184.986652099993,,,,,,,,1,001,2025-09-04_13h24.29.915,TEST_eye_tracker,2024.1.5,None,2025-09-04 13h24.44.470444 +0200,
17,C:\Users\id05278\Desktop\MLLM matteo\Task and screenshots\experiment-20250603T085947Z-1-001\experiment\responses_files\prompt_17.xlsx,C:\Users\id05278\Desktop\MLLM matteo\Task and screenshots\experiment-20250603T085947Z-1-001\experiment\responses_files\img_prompt_17.jpg,What is the full name of the institute mentioned in the image?,17,17.2,"The full name of this Institute is "Juilliard University". It was established by a group of students from different universities and institutions, including Juilliard School of Music, where they were studying music theory and composition.",2.333333333333333,VisualGLM-6b,0,14,14,16,0,1,1,1,1204.651545099994,,,,,,,,,,,,,,,,,,,,,,,,,,,1204.6248975999988,What is the full name of the institute mentioned in the image?,"The full name of this Institute is "Juilliard University". It was established by a group of students from different universities and institutions, including Juilliard School of Music, where they were studying music theory and composition.",1204.651545099994,1205.6515973999994,1205.6516106999989,1205.6859161999964,1217.3540454999966,space,11.643791800001054,None,1217.5560782999964,1217.594920399999,1217.594920399999,1217.594920399999,1217.594920399999,1220.7845843999967,1220.7845843999967,1221.390684399994,space,0.5695879000049899,None,1,1.4921771000008448,1,2.3617388999991817,1,3.1621988999977475,,,,,,,,,,,,,,,,,,,,1,001,2025-09-04_13h24.29.915,TEST_eye_tracker,2024.1.5,None,2025-09-04 13h24.44.470444 +0200,
17,C:\Users\id05278\Desktop\MLLM matteo\Task and screenshots\experiment-20250603T085947Z-1-001\experiment\responses_files\prompt_17.xlsx,C:\Users\id05278\Desktop\MLLM matteo\Task and screenshots\experiment-20250603T085947Z-1-001\experiment\responses_files\img_prompt_17.jpg,What is the full name of the institute mentioned in the image?,,,0.888,,,0,14,14,16,,,,,,,,,,,,,,,,,,,,,,,,,,,,,,,,,What is the full name of the institute mentioned in the image?,0.888,,,,,,,,,,,,,,,,,,,,,,,,,,1221.4909103999962,1221.5077393999964,1221.5077393999964,1222.3848456999986,1222.3848456999986,1222.6216728,1,0.8269026999987545,space,0.23352589999558404,None,,,,,,,,,1,001,2025-09-04_13h24.29.915,TEST_eye_tracker,2024.1.5,None,2025-09-04 13h24.44.470444 +0200,
10,C:\Users\id05278\Desktop\MLLM matteo\Task and screenshots\experiment-20250603T085947Z-1-001\experiment\responses_files\prompt_10.xlsx,C:\Users\id05278\Desktop\MLLM matteo\Task and screenshots\experiment-20250603T085947Z-1-001\experiment\responses_files\img_prompt_10.jpg,What could be a reason the people in the image are playing Wii at work?,10,10.2,"It looks like the people in the image are enjoying a game on the Wii, which could be part of a team-building activity or a break to foster a positive work environment. Companies sometimes use gaming as a way to encourage collaboration, relieve stress, and improve employee relations. It's also possible that this is a special event or celebration, or that the company encourages short gaming breaks to boost creativity and productivity.",4.333333333333333,gpt-4v,0,15,15,9,0,0,0,1,1238.7375557999985,,,,,,,,,,,,,,,,1222.6937188999946,1222.705161699996,1223.2195157999959,1223.2195285999987,1223.2533827999941,1223.2533827999941,1223.2533827999941,1238.2203508999955,space,14.957054600003175,None,1238.7296946999995,What could be a reason the people in the image are playing Wii at work?,"It looks like the people in the image are enjoying a game on the Wii, which could be part of a team-building activity or a break to foster a positive work environment. Companies sometimes use gaming as a way to encourage collaboration, relieve stress, and improve employee relations. It's also possible that this is a special event or celebration, or that the company encourages short gaming breaks to boost creativity and productivity.",1238.7375557999985,1239.7181544999985,1239.718166599996,1239.7519397999931,1250.9192073999948,space,11.14646399999765,None,1251.128364499993,1251.168851399998,1251.168851399998,1251.168851399998,1251.168851399998,1255.9181679999965,1255.9181679999965,1256.4242641999954,space,0.48387199999706354,None,4,2.4890346999964095,4,3.987715000002936,1,4.723125999997137,,,,,,,,,,,,,,,,,,,,1,001,2025-09-04_13h24.29.915,TEST_eye_tracker,2024.1.5,None,2025-09-04 13h24.44.470444 +0200,
10,C:\Users\id05278\Desktop\MLLM matteo\Task and screenshots\experiment-20250603T085947Z-1-001\experiment\responses_files\prompt_10.xlsx,C:\Users\id05278\Desktop\MLLM matteo\Task and screenshots\experiment-20250603T085947Z-1-001\experiment\responses_files\img_prompt_10.jpg,What could be a reason the people in the image are playing Wii at work?,10,10.1,"A possible reason the people in the image are playing Wii at work could be that they enjoy spending time together, engaging in fun activities, and fostering a sense of camaraderie. Wii games often involve physical movements, which can help relieve stress, promote teamwork, and enhance communication among players. By playing together, they share a common interest in a fun and interactive way, which can contribute to a positive work environment. Additionally, playing Wii at work might encourage employees to engage in more physical activity, which can lead to improved health and well-being.",5,fuyu-8b,0,15,15,9,0,1,1,0,1256.4514857999966,,,,,,,,,,,,,,,,,,,,,,,,,,,1256.424832699995,What could be a reason the people in the image are playing Wii at work?,"A possible reason the people in the image are playing Wii at work could be that they enjoy spending time together, engaging in fun activities, and fostering a sense of camaraderie. Wii games often involve physical movements, which can help relieve stress, promote teamwork, and enhance communication among players. By playing together, they share a common interest in a fun and interactive way, which can contribute to a positive work environment. Additionally, playing Wii at work might encourage employees to engage in more physical activity, which can lead to improved health and well-being.",1256.4514857999966,1257.451413499999,1257.4514280999938,1257.486176899998,1277.6525442999991,space,20.147421000001486,None,1277.8624283999961,1277.9022714999955,1277.9022714999955,1277.9022714999955,1277.9022714999955,1281.2847930999997,1281.2847930999997,1281.890615299999,space,0.5897516999975778,None,4,1.3196479000034742,5,2.588233399997989,1,3.3572260000000824,,,,,,,,,,,,,,,,,,,,1,001,2025-09-04_13h24.29.915,TEST_eye_tracker,2024.1.5,None,2025-09-04 13h24.44.470444 +0200,
10,C:\Users\id05278\Desktop\MLLM matteo\Task and screenshots\experiment-20250603T085947Z-1-001\experiment\responses_files\prompt_10.xlsx,C:\Users\id05278\Desktop\MLLM matteo\Task and screenshots\experiment-20250603T085947Z-1-001\experiment\responses_files\img_prompt_10.jpg,What could be a reason the people in the image are playing Wii at work?,,,0.888,,,0,15,15,9,,,,,,,,,,,,,,,,,,,,,,,,,,,,,,,,,What could be a reason the people in the image are playing Wii at work?,0.888,,,,,,,,,,,,,,,,,,,,,,,,,,1281.9916247999936,1282.0085896999954,1282.0085896999954,1284.9182804999946,1284.9182804999946,1285.2207708999995,2,2.85980780000682,space,0.29200699999637436,None,,,,,,,,,1,001,2025-09-04_13h24.29.915,TEST_eye_tracker,2024.1.5,None,2025-09-04 13h24.44.470444 +0200,
16,C:\Users\id05278\Desktop\MLLM matteo\Task and screenshots\experiment-20250603T085947Z-1-001\experiment\responses_files\prompt_16.xlsx,C:\Users\id05278\Desktop\MLLM matteo\Task and screenshots\experiment-20250603T085947Z-1-001\experiment\responses_files\img_prompt_16.jpg,What is the quote written in the image?,16,16.1,The quote written in the image is: "forgive yourself for not knowing what you didn't know before you lived through it.",5,LLaVA-RLHF-7b-v1.5-224,0,16,16,15,0,0,0,0,1301.616114999997,,,,,,,,,,,,,,,,1285.2939764999974,1285.303183099997,1285.818348599998,1285.8183614999944,1285.8531593999942,1285.8531593999942,1285.8531593999942,1301.1870827999956,space,15.301438999995298,None,1301.6081828999959,What is the quote written in the image?,The quote written in the image is: "forgive yourself for not knowing what you didn't know before you lived through it.",1301.616114999997,1302.619484099996,1302.6195066999935,1302.6516367999939,1310.2883888999932,space,7.606804700000794,None,1310.4875770999934,1310.527648999996,1310.527648999996,1310.527648999996,1310.527648999996,1314.3523199999981,1314.3523199999981,1314.858596099999,space,0.4899320999975316,None,5,1.9275309999939054,4,2.8963559999974677,1,3.8004033000033814,,,,,,,,,,,,,,,,,,,,1,001,2025-09-04_13h24.29.915,TEST_eye_tracker,2024.1.5,None,2025-09-04 13h24.44.470444 +0200,
16,C:\Users\id05278\Desktop\MLLM matteo\Task and screenshots\experiment-20250603T085947Z-1-001\experiment\responses_files\prompt_16.xlsx,C:\Users\id05278\Desktop\MLLM matteo\Task and screenshots\experiment-20250603T085947Z-1-001\experiment\responses_files\img_prompt_16.jpg,What is the quote written in the image?,16,16.2,"The quote in the image reads: "Forgive yourself for not knowing what you didn't know before you lived through it. Honor your path. Trust your journey. Learn, grow, evolve, become." It is attributed to someone named Cinda Crawford.",3,gpt-4v,0,16,16,15,0,1,1,1,1314.8860640999992,,,,,,,,,,,,,,,,,,,,,,,,,,,1314.8591426999992,What is the quote written in the image?,"The quote in the image reads: "Forgive yourself for not knowing what you didn't know before you lived through it. Honor your path. Trust your journey. Learn, grow, evolve, become." It is attributed to someone named Cinda Crawford.",1314.8860640999992,1315.8867360999939,1315.886748099998,1315.9195824999988,1329.3192439999984,space,13.378106900003331,None,1329.5208858999977,1329.5613199999934,1329.5613199999934,1329.5613199999934,1329.5613199999934,1332.7848591999937,1332.7848591999937,1333.491777599993,space,0.6891897000023164,None,5,0.9617442999951891,5,1.596595499999239,1,3.198150700001861,,,,,,,,,,,,,,,,,,,,1,001,2025-09-04_13h24.29.915,TEST_eye_tracker,2024.1.5,None,2025-09-04 13h24.44.470444 +0200,
16,C:\Users\id05278\Desktop\MLLM matteo\Task and screenshots\experiment-20250603T085947Z-1-001\experiment\responses_files\prompt_16.xlsx,C:\Users\id05278\Desktop\MLLM matteo\Task and screenshots\experiment-20250603T085947Z-1-001\experiment\responses_files\img_prompt_16.jpg,What is the quote written in the image?,,,0.888,,,0,16,16,15,,,,,,,,,,,,,,,,,,,,,,,,,,,,,,,,,What is the quote written in the image?,0.888,,,,,,,,,,,,,,,,,,,,,,,,,,1333.5995161999963,1333.6141912999956,1333.6141912999956,1335.4516865999976,1335.4516865999976,1335.7544404999935,2,1.785484699998051,space,0.2781422999978531,None,,,,,,,,,1,001,2025-09-04_13h24.29.915,TEST_eye_tracker,2024.1.5,None,2025-09-04 13h24.44.470444 +0200,
29,C:\Users\id05278\Desktop\MLLM matteo\Task and screenshots\experiment-20250603T085947Z-1-001\experiment\responses_files\prompt_29.xlsx,C:\Users\id05278\Desktop\MLLM matteo\Task and screenshots\experiment-20250603T085947Z-1-001\experiment\responses_files\img_prompt_29.jpg,What is the title of the book or study mentioned in the image?,29,29.1,Reaching for Home,5,fuyu-8b,0,17,17,28,0,0,0,0,1348.7876481999992,,,,,,,,,,,,,,,,1335.8276549999937,1335.8369131,1336.3522255999997,1336.3522573999944,1336.3865607999978,1336.3865607999978,1336.3865607999978,1348.3203955999998,space,11.903774099999282,None,1348.7795251999996,What is the title of the book or study mentioned in the image?,Reaching for Home,1348.7876481999992,1349.784919699996,1349.7849330999961,1349.820227499993,1352.7872091999961,space,2.9501663999981247,None,1352.9879347999959,1353.0280212999933,1353.0280212999933,1353.0280212999933,1353.0280212999933,1358.0184102999992,1358.0184102999992,1358.2575836999968,space,0.2235696999996435,None,5,1.3940594999949099,3,3.830274300002202,1,4.966036700003315,,,,,,,,,,,,,,,,,,,,1,001,2025-09-04_13h24.29.915,TEST_eye_tracker,2024.1.5,None,2025-09-04 13h24.44.470444 +0200,
29,C:\Users\id05278\Desktop\MLLM matteo\Task and screenshots\experiment-20250603T085947Z-1-001\experiment\responses_files\prompt_29.xlsx,C:\Users\id05278\Desktop\MLLM matteo\Task and screenshots\experiment-20250603T085947Z-1-001\experiment\responses_files\img_prompt_29.jpg,What is the title of the book or study mentioned in the image?,29,29.2,Reaching for Home: Global Learning on Family Reintegration in Low and Lower-Middle Income Countries,2.666666666666667,llava1.5-13b,0,17,17,28,0,1,1,1,1358.2864304999966,,,,,,,,,,,,,,,,,,,,,,,,,,,1358.2581245999972,What is the title of the book or study mentioned in the image?,Reaching for Home: Global Learning on Family Reintegration in Low and Lower-Middle Income Countries,1358.2864304999966,1359.2853570999941,1359.2853739999991,1359.318504099996,1363.0523206999933,space,3.7243145999964327,None,1363.2516619999951,1363.2912073999978,1363.2912073999978,1363.2912073999978,1363.2912073999978,1365.8850840999949,1365.8850840999949,1367.2245176999932,space,1.3173203999976977,None,5,1.130324899997504,5,1.7676090000022668,1,2.5676458000016282,,,,,,,,,,,,,,,,,,,,1,001,2025-09-04_13h24.29.915,TEST_eye_tracker,2024.1.5,None,2025-09-04 13h24.44.470444 +0200,
29,C:\Users\id05278\Desktop\MLLM matteo\Task and screenshots\experiment-20250603T085947Z-1-001\experiment\responses_files\prompt_29.xlsx,C:\Users\id05278\Desktop\MLLM matteo\Task and screenshots\experiment-20250603T085947Z-1-001\experiment\responses_files\img_prompt_29.jpg,What is the title of the book or study mentioned in the image?,,,0.888,,,0,17,17,28,,,,,,,,,,,,,,,,,,,,,,,,,,,,,,,,,What is the title of the book or study mentioned in the image?,0.888,,,,,,,,,,,,,,,,,,,,,,,,,,1367.3365763999973,1367.3510642999972,1367.3510642999972,1368.7850219999964,1368.7850219999964,1369.4878817999997,2,1.3818243999994593,space,0.6888182999973651,None,,,,,,,,,1,001,2025-09-04_13h24.29.915,TEST_eye_tracker,2024.1.5,None,2025-09-04 13h24.44.470444 +0200,
19,C:\Users\id05278\Desktop\MLLM matteo\Task and screenshots\experiment-20250603T085947Z-1-001\experiment\responses_files\prompt_19.xlsx,C:\Users\id05278\Desktop\MLLM matteo\Task and screenshots\experiment-20250603T085947Z-1-001\experiment\responses_files\img_prompt_19.jpg,What is the man doing in the image?,19,19.2,The man in the image is riding skis down a snow-covered slope while holding an ax in his hand.,2.333333333333333,Qwen-VL-Chat,0,18,18,18,0,0,0,1,1380.3887071999998,,,,,,,,,,,,,,,,1369.562488399999,1369.5714771999992,1370.0860171999957,1370.086036099994,1370.1201748999956,1370.1201748999956,1370.1201748999956,1379.9202800999992,space,9.795262399995408,None,1380.380733799997,What is the man doing in the image?,The man in the image is riding skis down a snow-covered slope while holding an ax in his hand.,1380.3887071999998,1381.3850220999957,1381.385033999999,1381.418270299997,1389.6541179999986,space,8.231940300000133,None,1389.8521163999976,1389.8916769999996,1389.8916769999996,1389.8916769999996,1389.8916769999996,1393.5517943999948,1393.5517943999948,1393.8260029999947,space,0.24243640000349842,None,5,1.6300279999995837,4,2.7000843999994686,1,3.6352871999988565,,,,,,,,,,,,,,,,,,,,1,001,2025-09-04_13h24.29.915,TEST_eye_tracker,2024.1.5,None,2025-09-04 13h24.44.470444 +0200,
19,C:\Users\id05278\Desktop\MLLM matteo\Task and screenshots\experiment-20250603T085947Z-1-001\experiment\responses_files\prompt_19.xlsx,C:\Users\id05278\Desktop\MLLM matteo\Task and screenshots\experiment-20250603T085947Z-1-001\experiment\responses_files\img_prompt_19.jpg,What is the man doing in the image?,19,19.1,"The man in the image is snowboarding down a snow-covered slope, holding a large red axe or a long stick. He is wearing a plaid shirt and appears to be enjoying his time on the snowy hill. It is not common for snowboarders to carry a large axe or stick while snowboarding, so this unusual combination of snowboarding and carrying a large tool might be a unique aspect of this particular scene. It could be that the man is participating in some kind of special event or demonstration, or perhaps he is using the large red axe for a specific purpose, such as clearing snow or providing some kind of assistance during his snowboarding adventure.",3,LLaVA-RLHF-7b-v1.5-224,0,18,18,18,0,1,1,0,1393.8516430999953,,,,,,,,,,,,,,,,,,,,,,,,,,,1393.8265496999957,What is the man doing in the image?,"The man in the image is snowboarding down a snow-covered slope, holding a large red axe or a long stick. He is wearing a plaid shirt and appears to be enjoying his time on the snowy hill. It is not common for snowboarders to carry a large axe or stick while snowboarding, so this unusual combination of snowboarding and carrying a large tool might be a unique aspect of this particular scene. It could be that the man is participating in some kind of special event or demonstration, or perhaps he is using the large red axe for a specific purpose, such as clearing snow or providing some kind of assistance during his snowboarding adventure.",1393.8516430999953,1394.8517350999973,1394.851748999994,1394.8852572999967,1423.654198499993,space,28.741372099997534,None,1423.8639761999948,1423.9039863999933,1423.9039863999933,1423.9039863999933,1423.9039863999933,1426.9183368999948,1426.9183368999948,1427.2577034999995,space,0.3324527000004309,None,5,1.3176457000008668,5,1.9557107999935397,1,2.98875009999756,,,,,,,,,,,,,,,,,,,,1,001,2025-09-04_13h24.29.915,TEST_eye_tracker,2024.1.5,None,2025-09-04 13h24.44.470444 +0200,
19,C:\Users\id05278\Desktop\MLLM matteo\Task and screenshots\experiment-20250603T085947Z-1-001\experiment\responses_files\prompt_19.xlsx,C:\Users\id05278\Desktop\MLLM matteo\Task and screenshots\experiment-20250603T085947Z-1-001\experiment\responses_files\img_prompt_19.jpg,What is the man doing in the image?,,,0.888,,,0,18,18,18,,,,,,,,,,,,,,,,,,,,,,,,,,,,,,,,,What is the man doing in the image?,0.888,,,,,,,,,,,,,,,,,,,,,,,,,,1427.369368199994,1427.3863566,1427.3863566,1428.8184762999954,1428.8184762999954,1429.3212329999951,2,1.3827533000003314,space,0.49573099999543047,None,,,,,,,,,1,001,2025-09-04_13h24.29.915,TEST_eye_tracker,2024.1.5,None,2025-09-04 13h24.44.470444 +0200,
28,C:\Users\id05278\Desktop\MLLM matteo\Task and screenshots\experiment-20250603T085947Z-1-001\experiment\responses_files\prompt_28.xlsx,C:\Users\id05278\Desktop\MLLM matteo\Task and screenshots\experiment-20250603T085947Z-1-001\experiment\responses_files\img_prompt_28.jpg,What is the quote on the image?,28,28.1,"My goal is not to be better than anyone else, but rather to use my own abilities and passions in order to achieve success. I am a person who values self-improvement and growth as much as others do. The phrase "my goal is not to be better than anyone else" reflects my determination for personal development and progress. It emphasizes that I will strive to improve myself regardless of external factors or competition.",2.333333333333333,VisualGLM-6b,0,19,19,27,0,0,0,0,1439.1832676999984,,,,,,,,,,,,,,,,1429.4053036999976,1429.414568799999,1429.9186012999999,1429.918617599993,1429.9538688999965,1429.9538688999965,1429.9538688999965,1438.820419399999,space,8.847656700003427,None,1439.1731577999963,What is the quote on the image?,"My goal is not to be better than anyone else, but rather to use my own abilities and passions in order to achieve success. I am a person who values self-improvement and growth as much as others do. The phrase "my goal is not to be better than anyone else" reflects my determination for personal development and progress. It emphasizes that I will strive to improve myself regardless of external factors or competition.",1439.1832676999984,1440.1852753999992,1440.1852874999968,1440.2186030999947,1455.6540963999942,space,15.433060299998033,None,1455.8608621999956,1455.9009403999953,1455.9009403999953,1455.9009403999953,1455.9009403999953,1460.9851286999983,1460.9851286999983,1461.3257320999983,space,0.3285995999976876,None,2,1.6875245999981416,2,4.2245982000022195,1,5.059805199998664,,,,,,,,,,,,,,,,,,,,1,001,2025-09-04_13h24.29.915,TEST_eye_tracker,2024.1.5,None,2025-09-04 13h24.44.470444 +0200,
28,C:\Users\id05278\Desktop\MLLM matteo\Task and screenshots\experiment-20250603T085947Z-1-001\experiment\responses_files\prompt_28.xlsx,C:\Users\id05278\Desktop\MLLM matteo\Task and screenshots\experiment-20250603T085947Z-1-001\experiment\responses_files\img_prompt_28.jpg,What is the quote on the image?,28,28.2,"The quote on the image is: "My goal is not to be better than anyone else, but to be better than I used to be." - Wayne Dyer",4.333333333333333,Qwen-VL-Chat,0,19,19,27,0,1,1,1,1461.3528683999975,,,,,,,,,,,,,,,,,,,,,,,,,,,1461.3262885999939,What is the quote on the image?,"The quote on the image is: "My goal is not to be better than anyone else, but to be better than I used to be." - Wayne Dyer",1461.3528683999975,1462.3526840999984,1462.3526977999936,1462.3861757999985,1466.3875344999979,space,4.00003960000322,None,1466.585799499997,1466.625692099995,1466.625692099995,1466.625692099995,1466.625692099995,1470.1194478999969,1470.1194478999969,1470.5256464999984,space,0.37105119999614544,None,5,1.3653144999989308,4,2.532081499994092,1,3.4673397000005934,,,,,,,,,,,,,,,,,,,,1,001,2025-09-04_13h24.29.915,TEST_eye_tracker,2024.1.5,None,2025-09-04 13h24.44.470444 +0200,
28,C:\Users\id05278\Desktop\MLLM matteo\Task and screenshots\experiment-20250603T085947Z-1-001\experiment\responses_files\prompt_28.xlsx,C:\Users\id05278\Desktop\MLLM matteo\Task and screenshots\experiment-20250603T085947Z-1-001\experiment\responses_files\img_prompt_28.jpg,What is the quote on the image?,,,0.888,,,0,19,19,27,,,,,,,,,,,,,,,,,,,,,,,,,,,,,,,,,What is the quote on the image?,0.888,,,,,,,,,,,,,,,,,,,,,,,,,,1470.6461694999962,1470.6611875999952,1470.6611875999952,1471.8530481999987,1471.8530481999987,1472.1206740999987,2,1.140886999994109,space,0.23723959999915678,None,,,,,,,,,1,001,2025-09-04_13h24.29.915,TEST_eye_tracker,2024.1.5,None,2025-09-04 13h24.44.470444 +0200,
6,C:\Users\id05278\Desktop\MLLM matteo\Task and screenshots\experiment-20250603T085947Z-1-001\experiment\responses_files\prompt_6.xlsx,C:\Users\id05278\Desktop\MLLM matteo\Task and screenshots\experiment-20250603T085947Z-1-001\experiment\responses_files\img_prompt_6.jpg,Did the artist include a chicken in this piece?,6,6.2,"No, there is no chicken in this image. The image shows a street scene with cows. There is a white cow with a bell around its neck looking directly at the camera, and another cow in front of it seen from behind. There are also people in the background, but no chickens are visible in the photograph.",4,gpt-4v,0,20,20,5,0,0,0,1,1484.8613464999944,,,,,,,,,,,,,,,,1472.1950728999946,1472.2039002999954,1472.7185478999963,1472.718560399997,1472.7533511999936,1472.7533511999936,1472.7533511999936,1484.3554640999937,space,11.576960999998846,None,1484.8533117999978,Did the artist include a chicken in this piece?,"No, there is no chicken in this image. The image shows a street scene with cows. There is a white cow with a bell around its neck looking directly at the camera, and another cow in front of it seen from behind. There are also people in the background, but no chickens are visible in the photograph.",1484.8613464999944,1485.8537880999938,1485.8537999999971,1485.8858600999956,1506.2195401999998,space,20.324245099996915,None,1506.4249050999933,1506.4662065999946,1506.4662065999946,1506.4662065999946,1506.4662065999946,1512.3531162999934,1512.3531162999934,1513.0917222999997,space,0.7126905000041006,None,5,3.1913007000039215,4,4.193786499999987,1,5.8625236000007135,,,,,,,,,,,,,,,,,,,,1,001,2025-09-04_13h24.29.915,TEST_eye_tracker,2024.1.5,None,2025-09-04 13h24.44.470444 +0200,
6,C:\Users\id05278\Desktop\MLLM matteo\Task and screenshots\experiment-20250603T085947Z-1-001\experiment\responses_files\prompt_6.xlsx,C:\Users\id05278\Desktop\MLLM matteo\Task and screenshots\experiment-20250603T085947Z-1-001\experiment\responses_files\img_prompt_6.jpg,Did the artist include a chicken in this piece?,6,6.1,"No, the artist did not include a chicken in this piece. The image features two cows standing next to each other on a dirt road, with a man standing behind them. There are no chickens in the scene. The focus of the image is on the cows and the man, and it does not include any other animals.",5,LLaVA-RLHF-7b-v1.5-224,0,20,20,5,0,1,1,0,1513.1199431999994,,,,,,,,,,,,,,,,,,,,,,,,,,,1513.0923014,Did the artist include a chicken in this piece?,"No, the artist did not include a chicken in this piece. The image features two cows standing next to each other on a dirt road, with a man standing behind them. There are no chickens in the scene. The focus of the image is on the cows and the man, and it does not include any other animals.",1513.1199431999994,1514.119965699996,1514.1199972999966,1514.1519352999967,1532.2861033999943,space,18.122732300005737,None,1532.4899196999977,1532.5301110999935,1532.5301110999935,1532.5301110999935,1532.5301110999935,1535.4853423999957,1535.4853423999957,1536.157621899998,space,0.6611044000019319,None,5,1.1602425999953994,5,1.9300016999986838,1,2.9305217000000994,,,,,,,,,,,,,,,,,,,,1,001,2025-09-04_13h24.29.915,TEST_eye_tracker,2024.1.5,None,2025-09-04 13h24.44.470444 +0200,
6,C:\Users\id05278\Desktop\MLLM matteo\Task and screenshots\experiment-20250603T085947Z-1-001\experiment\responses_files\prompt_6.xlsx,C:\Users\id05278\Desktop\MLLM matteo\Task and screenshots\experiment-20250603T085947Z-1-001\experiment\responses_files\img_prompt_6.jpg,Did the artist include a chicken in this piece?,,,0.888,,,0,20,20,5,,,,,,,,,,,,,,,,,,,,,,,,,,,,,,,,,Did the artist include a chicken in this piece?,0.888,,,,,,,,,,,,,,,,,,,,,,,,,,1536.2823240999933,1536.2971697999965,1536.2971697999965,1537.2526827999973,1537.2526827999973,1537.4875939999984,2,0.904287999997905,space,0.2135070000003907,None,,,,,,,,,1,001,2025-09-04_13h24.29.915,TEST_eye_tracker,2024.1.5,None,2025-09-04 13h24.44.470444 +0200,
27,C:\Users\id05278\Desktop\MLLM matteo\Task and screenshots\experiment-20250603T085947Z-1-001\experiment\responses_files\prompt_27.xlsx,C:\Users\id05278\Desktop\MLLM matteo\Task and screenshots\experiment-20250603T085947Z-1-001\experiment\responses_files\img_prompt_27.jpg,What is the possible theme of this image?,27,27.1,"The possible theme of this image could be a casual meal, as it features two plates with different dishes on them. One plate contains a sandwich and fries while another has a salad and a side dish like rice or beans. These dishes are served in cups and bowls on white dining tables, which suggests that they might be part of an evening gathering or social event where people enjoy their meals together.",4.333333333333333,VisualGLM-6b,0,21,21,26,0,0,0,0,1570.503643499993,,,,,,,,,,,,,,,,1537.565532099994,1537.574729299995,1538.0856254999962,1538.0856391999987,1538.1205081999942,1538.1205081999942,1538.1205081999942,1569.9890625999979,space,31.849680100000114,None,1570.495342299997,What is the possible theme of this image?,"The possible theme of this image could be a casual meal, as it features two plates with different dishes on them. One plate contains a sandwich and fries while another has a salad and a side dish like rice or beans. These dishes are served in cups and bowls on white dining tables, which suggests that they might be part of an evening gathering or social event where people enjoy their meals together.",1570.503643499993,1571.4864936999948,1571.486507799993,1571.5208287999994,1600.654788199994,space,29.129745099999127,None,1600.8643553999937,1600.9043408999933,1600.9043408999933,1600.9043408999933,1600.9043408999933,1604.8188140999991,1604.8188140999991,1605.3584749999936,space,0.5198772000003373,None,5,1.7200517999954172,4,2.855926099997305,1,3.8898988000000827,,,,,,,,,,,,,,,,,,,,1,001,2025-09-04_13h24.29.915,TEST_eye_tracker,2024.1.5,None,2025-09-04 13h24.44.470444 +0200,
27,C:\Users\id05278\Desktop\MLLM matteo\Task and screenshots\experiment-20250603T085947Z-1-001\experiment\responses_files\prompt_27.xlsx,C:\Users\id05278\Desktop\MLLM matteo\Task and screenshots\experiment-20250603T085947Z-1-001\experiment\responses_files\img_prompt_27.jpg,What is the possible theme of this image?,27,27.2,"The image appears to be centered around a meal at a restaurant, featuring what looks like a sandwich possibly with pulled pork, served with French fries and a side of coleslaw, accompanied by a small bowl of sauce. On the other plate, there seems to be a rice dish with vegetables and grilled chicken breast, served with slices of toasted bread. The drinks visible are likely soft drinks. The theme suggests a casual dining experience, possibly at an American-style restaurant or diner, with a focus on hearty, comfort food dishes.",3.666666666666667,gpt-4v,0,21,21,26,0,1,1,1,1605.3867490999983,,,,,,,,,,,,,,,,,,,,,,,,,,,1605.3592667999983,What is the possible theme of this image?,"The image appears to be centered around a meal at a restaurant, featuring what looks like a sandwich possibly with pulled pork, served with French fries and a side of coleslaw, accompanied by a small bowl of sauce. On the other plate, there seems to be a rice dish with vegetables and grilled chicken breast, served with slices of toasted bread. The drinks visible are likely soft drinks. The theme suggests a casual dining experience, possibly at an American-style restaurant or diner, with a focus on hearty, comfort food dishes.",1605.3867490999983,1606.385555899993,1606.3855767999994,1606.4189457999964,1628.2198637999973,space,21.791451999997662,None,1628.429795199998,1628.4737758999981,1628.4737758999981,1628.4737758999981,1628.4737758999981,1631.4530720999974,1631.4530720999974,1631.5989607999945,space,0.12632390000362648,None,5,1.4529725999964285,4,2.255007400002796,1,2.9570458000016515,,,,,,,,,,,,,,,,,,,,1,001,2025-09-04_13h24.29.915,TEST_eye_tracker,2024.1.5,None,2025-09-04 13h24.44.470444 +0200,
27,C:\Users\id05278\Desktop\MLLM matteo\Task and screenshots\experiment-20250603T085947Z-1-001\experiment\responses_files\prompt_27.xlsx,C:\Users\id05278\Desktop\MLLM matteo\Task and screenshots\experiment-20250603T085947Z-1-001\experiment\responses_files\img_prompt_27.jpg,What is the possible theme of this image?,,,0.888,,,0,21,21,26,,,,,,,,,,,,,,,,,,,,,,,,,,,,,,,,,What is the possible theme of this image?,0.888,,,,,,,,,,,,,,,,,,,,,,,,,,1631.7314348999935,1631.7463658999986,1631.7463658999986,1633.452107099998,1633.452107099998,1633.6547943999976,1,1.6556079000001773,space,0.1895451000018511,None,,,,,,,,,1,001,2025-09-04_13h24.29.915,TEST_eye_tracker,2024.1.5,None,2025-09-04 13h24.44.470444 +0200,
14,C:\Users\id05278\Desktop\MLLM matteo\Task and screenshots\experiment-20250603T085947Z-1-001\experiment\responses_files\prompt_14.xlsx,C:\Users\id05278\Desktop\MLLM matteo\Task and screenshots\experiment-20250603T085947Z-1-001\experiment\responses_files\img_prompt_14.jpg,Why is the quote "Little things can grow big" significant?,14,14.1,"The quote "Little things can grow big" is significant because it emphasizes the importance of paying attention to small details and considering their potential impact. It suggests that seemingly insignificant occurrences or actions can have a significant impact on the bigger picture, and that one should not underestimate the power of small things. This quote can be applied in various contexts, such as personal growth, business, or even global issues, as it reminds us to be mindful of our actions and the potential consequences they may have. It encourages us to take a holistic view of life and recognize the interconnectedness of all things, even if they appear small at first glance.",2.333333333333333,Qwen-VL-Chat,0,22,22,13,0,0,0,0,1642.4766597999987,,,,,,,,,,,,,,,,1633.7323480999985,1633.7414573999995,1634.2521594999998,1634.252174299996,1634.2872567999948,1634.2872567999948,1634.2872567999948,1641.9889309999999,space,7.675850999999966,None,1642.467441599998,Why is the quote "Little things can grow big" significant?,"The quote "Little things can grow big" is significant because it emphasizes the importance of paying attention to small details and considering their potential impact. It suggests that seemingly insignificant occurrences or actions can have a significant impact on the bigger picture, and that one should not underestimate the power of small things. This quote can be applied in various contexts, such as personal growth, business, or even global issues, as it reminds us to be mindful of our actions and the potential consequences they may have. It encourages us to take a holistic view of life and recognize the interconnectedness of all things, even if they appear small at first glance.",1642.4766597999987,1643.4854624,1643.4854748999933,1643.520440399996,1657.9202043999976,space,14.377846199997293,None,1658.1359312999994,1658.1764287999977,1658.1764287999977,1658.1764287999977,1658.1764287999977,1662.6188930999997,1662.6188930999997,1662.925187899993,space,0.27136199999949895,None,1,2.2473638000010396,1,3.6827587999941898,1,4.417311099998187,,,,,,,,,,,,,,,,,,,,1,001,2025-09-04_13h24.29.915,TEST_eye_tracker,2024.1.5,None,2025-09-04 13h24.44.470444 +0200,
14,C:\Users\id05278\Desktop\MLLM matteo\Task and screenshots\experiment-20250603T085947Z-1-001\experiment\responses_files\prompt_14.xlsx,C:\Users\id05278\Desktop\MLLM matteo\Task and screenshots\experiment-20250603T085947Z-1-001\experiment\responses_files\img_prompt_14.jpg,Why is the quote "Little things can grow big" significant?,14,14.2,"The quote "Little things can grow big" is significant because it emphasizes the importance of small actions and their potential to have a significant impact over time. In the image, the shadows of four people are cast on the ground, suggesting that even the smallest of individuals can contribute to something bigger. This idea can be applied to various aspects of life, such as personal growth, relationships, or even community development. It serves as a reminder that even the smallest actions or contributions can have a lasting impact and contribute to the growth and success of a larger entity or goal.",1,llava1.5-13b,0,22,22,13,0,1,1,1,1662.9519809999983,,,,,,,,,,,,,,,,,,,,,,,,,,,1662.925771999995,Why is the quote "Little things can grow big" significant?,"The quote "Little things can grow big" is significant because it emphasizes the importance of small actions and their potential to have a significant impact over time. In the image, the shadows of four people are cast on the ground, suggesting that even the smallest of individuals can contribute to something bigger. This idea can be applied to various aspects of life, such as personal growth, relationships, or even community development. It serves as a reminder that even the smallest actions or contributions can have a lasting impact and contribute to the growth and success of a larger entity or goal.",1662.9519809999983,1663.9524007,1663.952416299995,1663.9858034999997,1680.1869272999975,space,16.176190800004406,None,1680.3978994999998,1680.4382272999937,1680.4382272999937,1680.4382272999937,1680.4382272999937,1685.552126699993,1685.552126699993,1686.1921593999941,space,0.610309600000619,None,5,1.185473199999251,4,3.3573308999984874,1,5.090093300001172,,,,,,,,,,,,,,,,,,,,1,001,2025-09-04_13h24.29.915,TEST_eye_tracker,2024.1.5,None,2025-09-04 13h24.44.470444 +0200,
14,C:\Users\id05278\Desktop\MLLM matteo\Task and screenshots\experiment-20250603T085947Z-1-001\experiment\responses_files\prompt_14.xlsx,C:\Users\id05278\Desktop\MLLM matteo\Task and screenshots\experiment-20250603T085947Z-1-001\experiment\responses_files\img_prompt_14.jpg,Why is the quote "Little things can grow big" significant?,,,0.888,,,0,22,22,13,,,,,,,,,,,,,,,,,,,,,,,,,,,,,,,,,Why is the quote "Little things can grow big" significant?,0.888,,,,,,,,,,,,,,,,,,,,,,,,,,1686.321539699995,1686.3378348999977,1686.3378348999977,1687.2191008999944,1687.2191008999944,1687.4266147999951,2,0.831767800002126,space,0.19051060000492726,None,,,,,,,,,1,001,2025-09-04_13h24.29.915,TEST_eye_tracker,2024.1.5,None,2025-09-04 13h24.44.470444 +0200,
13,C:\Users\id05278\Desktop\MLLM matteo\Task and screenshots\experiment-20250603T085947Z-1-001\experiment\responses_files\prompt_13.xlsx,C:\Users\id05278\Desktop\MLLM matteo\Task and screenshots\experiment-20250603T085947Z-1-001\experiment\responses_files\img_prompt_13.jpg,What is the size of the bowl in the image?,13,13.1,The bowl in the image is small.,2.333333333333333,llava1.5-7b,0,23,23,12,0,0,0,0,1700.184981899998,,,,,,,,,,,,,,,,1687.5050151999967,1687.5141211999944,1688.0186752999944,1688.0186889999968,1688.0534347999928,1688.0534347999928,1688.0534347999928,1699.8209999999963,space,11.733854199999769,None,1700.177079999994,What is the size of the bowl in the image?,The bowl in the image is small.,1700.184981899998,1701.185607099993,1701.185623199999,1701.218965999993,1704.7200211999952,space,3.4956374000030337,None,1704.9159763999996,1704.9555453999928,1704.9555453999928,1704.9555453999928,1704.9555453999928,1709.6520912999986,1709.6520912999986,1710.2592506999936,space,0.5744873000003281,None,3,3.2021555000028457,3,3.83575259999634,1,4.673828299994057,,,,,,,,,,,,,,,,,,,,1,001,2025-09-04_13h24.29.915,TEST_eye_tracker,2024.1.5,None,2025-09-04 13h24.44.470444 +0200,
13,C:\Users\id05278\Desktop\MLLM matteo\Task and screenshots\experiment-20250603T085947Z-1-001\experiment\responses_files\prompt_13.xlsx,C:\Users\id05278\Desktop\MLLM matteo\Task and screenshots\experiment-20250603T085947Z-1-001\experiment\responses_files\img_prompt_13.jpg,What is the size of the bowl in the image?,13,13.2,"The bowl in the image contains miniature items, as indicated by the comparison with the penny. To provide an accurate estimate of the bowl's size, I would need to know the dimensions of the coin, which appears to be a U.S. penny. U.S. pennies have a diameter of 0.75 inches (19.05 mm). By comparing the bowl with the penny, we can visually estimate that the bowl is slightly more than twice the diameter of the penny, making the bowl approximately 1.5 to 2 inches in diameter. However, this is a rough estimate, and the actual size could vary.",3.333333333333333,gpt-4v,0,23,23,12,0,1,1,1,1710.2854340999984,,,,,,,,,,,,,,,,,,,,,,,,,,,1710.2598276999997,What is the size of the bowl in the image?,"The bowl in the image contains miniature items, as indicated by the comparison with the penny. To provide an accurate estimate of the bowl's size, I would need to know the dimensions of the coin, which appears to be a U.S. penny. U.S. pennies have a diameter of 0.75 inches (19.05 mm). By comparing the bowl with the penny, we can visually estimate that the bowl is slightly more than twice the diameter of the penny, making the bowl approximately 1.5 to 2 inches in diameter. However, this is a rough estimate, and the actual size could vary.",1710.2854340999984,1711.2857573999936,1711.2857817999975,1711.320392099995,1724.2867127999998,space,12.938007700002345,None,1724.497815099996,1724.5378513999967,1724.5378513999967,1724.5378513999967,1724.5378513999967,1727.5856465999968,1727.5856465999968,1727.8249868999992,space,0.20872020000388147,None,5,1.5177197000011802,5,2.1874823000034667,1,3.0240929999999935,,,,,,,,,,,,,,,,,,,,1,001,2025-09-04_13h24.29.915,TEST_eye_tracker,2024.1.5,None,2025-09-04 13h24.44.470444 +0200,
13,C:\Users\id05278\Desktop\MLLM matteo\Task and screenshots\experiment-20250603T085947Z-1-001\experiment\responses_files\prompt_13.xlsx,C:\Users\id05278\Desktop\MLLM matteo\Task and screenshots\experiment-20250603T085947Z-1-001\experiment\responses_files\img_prompt_13.jpg,What is the size of the bowl in the image?,,,0.888,,,0,23,23,12,,,,,,,,,,,,,,,,,,,,,,,,,,,,,,,,,What is the size of the bowl in the image?,0.888,,,,,,,,,,,,,,,,,,,,,,,,,,1727.9563170999972,1727.971557399993,1727.971557399993,1728.8855590999956,1728.8855590999956,1729.0887256999995,2,0.8626472999967518,space,0.18882189999567345,None,,,,,,,,,1,001,2025-09-04_13h24.29.915,TEST_eye_tracker,2024.1.5,None,2025-09-04 13h24.44.470444 +0200,
