n_prompt,prompt_file,image_file,prompt_text,related_prompt,n_resp,resp_text,rank,model,Trial.thisRepN,Trial.thisTrialN,Trial.thisN,Trial.thisIndex,per_answer.thisRepN,per_answer.thisTrialN,per_answer.thisN,per_answer.thisIndex,thisRow.t,notes,Intro_1.started,key_resp_5.started,textbox.started,Intro_1.stopped,key_resp_5.keys,key_resp_5.rt,key_resp_5.duration,Intro_2.started,textbox_2.started,key_resp_8.started,Intro_2.stopped,key_resp_8.keys,key_resp_8.rt,key_resp_8.duration,prompt_number.started,text.started,prompt_number.stopped,prompt.started,Prompt_.started,image.started,key_resp_4.started,prompt.stopped,key_resp_4.keys,key_resp_4.rt,key_resp_4.duration,Cross.started,prompt_text,resp_text,cross_white.started,Cross.stopped,trial_textbox.started,key_resp_2.started,trial_textbox.stopped,key_resp_2.keys,key_resp_2.rt,key_resp_2.duration,rating.started,question_useful_2.started,Inaccurate_Faithful.started,Not_Helpful_Helpful.started,ViolentHarmless.started,key_resp_6.started,press_space.started,rating.stopped,key_resp_6.keys,key_resp_6.rt,key_resp_6.duration,Inaccurate_Faithful.response,Inaccurate_Faithful.rt,Not_Helpful_Helpful.response,Not_Helpful_Helpful.rt,ViolentHarmless.response,ViolentHarmless.rt,ranking.started,question_ranking.started,ranking_better.started,key_resp_7.started,text_2.started,ranking.stopped,ranking_better.response,ranking_better.rt,key_resp_7.keys,key_resp_7.rt,key_resp_7.duration,text.stopped,cross_white.stopped,End.started,Bye_message.started,press_to_end_exp.started,End.stopped,press_to_end_exp.keys,press_to_end_exp.rt,press_to_end_exp.duration,participant,session,date,expName,psychopyVersion,frameRate,expStart,
,,,,,,,,,,,,,,,,,,,0.006779300005291589,0.02154280000831932,0.02154280000831932,30.52833250000549,space,30.48912090000522,None,,,,,,,,,,,,,,,,,,,,,,,,,,,,,,,,,,,,,,,,,,,,,,,,,,,,,,,,,,,,,,,,,,,1,001,2025-09-04_16h52.06.478,TEST_eye_tracker,2024.1.5,None,2025-09-04 16h52.16.611728 +0200,
,,,,,,,,,,,,,,,,,,,,,,,,,,30.52836290000414,30.557940400001826,30.557940400001826,52.99238950001018,space,22.40104149999388,None,,,,,,,,,,,,,,,,,,,,,,,,,,,,,,,,,,,,,,,,,,,,,,,,,,,,,,,,,,,,1,001,2025-09-04_16h52.06.478,TEST_eye_tracker,2024.1.5,None,2025-09-04 16h52.16.611728 +0200,
23,C:\Users\id05278\Desktop\MLLM matteo\Task and screenshots\experiment-20250603T085947Z-1-001\experiment\responses_files\prompt_23.xlsx,C:\Users\id05278\Desktop\MLLM matteo\Task and screenshots\experiment-20250603T085947Z-1-001\experiment\responses_files\img_prompt_23.jpg,What is the title and topic of the book mentioned in the image?,23,23.1,"This page shows a diagram showing how vehicles use noise and vibration reduction systems to reduce their environmental impact. The diagram includes various components, such as vehicle body, engine, transmission, differentials, and wheels, that are used for noise and vibration reduction.",3,VisualGLM-6b,0,0,0,22,0,0,0,0,72.08321280000382,,,,,,,,,,,,,,,,53.00014270000975,53.02464480001072,53.52494850000949,53.52496080000128,56.0513542000117,56.0513542000117,56.0513542000117,71.79343950000475,space,15.722587099997327,None,72.07516560000659,What is the title and topic of the book mentioned in the image?,"This page shows a diagram showing how vehicles use noise and vibration reduction systems to reduce their environmental impact. The diagram includes various components, such as vehicle body, engine, transmission, differentials, and wheels, that are used for noise and vibration reduction.",72.08321280000382,73.09144120001292,73.0914577000076,73.12897540000267,91.99210300001141,space,18.8451184000005,None,92.19319190000533,92.6610512000043,92.6610512000043,92.6610512000043,92.6610512000043,108.98280350001005,108.98280350001005,109.86535990000993,space,0.8710881000006339,None,4,6.806546299994807,3,11.009852499992121,5,16.27918120000686,,,,,,,,,,,,,,,,,,,,,1,001,2025-09-04_16h52.06.478,TEST_eye_tracker,2024.1.5,None,2025-09-04 16h52.16.611728 +0200,
23,C:\Users\id05278\Desktop\MLLM matteo\Task and screenshots\experiment-20250603T085947Z-1-001\experiment\responses_files\prompt_23.xlsx,C:\Users\id05278\Desktop\MLLM matteo\Task and screenshots\experiment-20250603T085947Z-1-001\experiment\responses_files\img_prompt_23.jpg,What is the title and topic of the book mentioned in the image?,23,23.2,Title: Vehicle Noise and Vibration Refinement. Topic: Woodhead Publishing in Mechanical Engineering.,5,fuyu-8b,0,0,0,22,0,1,1,1,109.89142990000255,,,,,,,,,,,,,,,,,,,,,,,,,,,109.86595560000569,What is the title and topic of the book mentioned in the image?,Title: Vehicle Noise and Vibration Refinement. Topic: Woodhead Publishing in Mechanical Engineering.,109.89142990000255,110.89149300000281,110.8915066000045,110.92583800001012,115.42577830000664,space,4.488198100007139,None,115.62021000000823,115.66008560000046,115.66008560000046,115.66008560000046,115.66008560000046,124.52483740000753,124.52483740000753,126.29785800000536,space,1.7624168999900576,None,5,2.9023234999913257,5,4.703737000003457,5,8.839717599999858,,,,,,,,,,,,,,,,,,,,,1,001,2025-09-04_16h52.06.478,TEST_eye_tracker,2024.1.5,None,2025-09-04 16h52.16.611728 +0200,
23,C:\Users\id05278\Desktop\MLLM matteo\Task and screenshots\experiment-20250603T085947Z-1-001\experiment\responses_files\prompt_23.xlsx,C:\Users\id05278\Desktop\MLLM matteo\Task and screenshots\experiment-20250603T085947Z-1-001\experiment\responses_files\img_prompt_23.jpg,What is the title and topic of the book mentioned in the image?,,,0.888,,,0,0,0,22,,,,,,,,,,,,,,,,,,,,,,,,,,,,,,,,,What is the title and topic of the book mentioned in the image?,0.888,,,,,,,,,,,,,,,,,,,,,,,,,,126.32946180000727,126.34521520000999,126.34521520000999,130.19165069999872,130.19165069999872,131.09401420000358,2,3.795992600003956,space,0.8699530999874696,None,,,,,,,,,,1,001,2025-09-04_16h52.06.478,TEST_eye_tracker,2024.1.5,None,2025-09-04 16h52.16.611728 +0200,
15,C:\Users\id05278\Desktop\MLLM matteo\Task and screenshots\experiment-20250603T085947Z-1-001\experiment\responses_files\prompt_15.xlsx,C:\Users\id05278\Desktop\MLLM matteo\Task and screenshots\experiment-20250603T085947Z-1-001\experiment\responses_files\img_prompt_15.jpg,What is the title of Naomi Klein's book?,15,15.2,"The title of NaomiKlein's book "The Shock Doctrine" is "The End of Employment and the Rise of Disaster Capitalism." This book explores how economic policies have become increasingly harmful to human rights, social justice, and environmental sustainability. It argues that the shock doctrine has led to a situation where large-scale industries are being built in developing countries with little regard for local conditions or social implications.",2.333333333333333,VisualGLM-6b,0,1,1,14,0,0,0,1,140.17611220000254,,,,,,,,,,,,,,,,131.16157470000326,131.1738403000054,131.65957550000167,131.65961990000505,131.6924100000033,131.6924100000033,131.6924100000033,139.89391270000488,space,8.185628000006545,None,140.16724170000816,What is the title of Naomi Klein's book?,"The title of NaomiKlein's book "The Shock Doctrine" is "The End of Employment and the Rise of Disaster Capitalism." This book explores how economic policies have become increasingly harmful to human rights, social justice, and environmental sustainability. It argues that the shock doctrine has led to a situation where large-scale industries are being built in developing countries with little regard for local conditions or social implications.",140.17611220000254,141.19146880001063,141.19148230001156,141.2262488000124,159.42583300000115,space,18.17223969999759,None,159.6299308000016,159.66936490000808,159.66936490000808,159.66936490000808,159.66936490000808,171.42467910000414,171.42467910000414,174.36417420000362,space,2.910688100004336,None,4,6.625027800007956,5,8.060710799996741,5,11.730087899995851,,,,,,,,,,,,131.6924100000033,,,,,,,,,1,001,2025-09-04_16h52.06.478,TEST_eye_tracker,2024.1.5,None,2025-09-04 16h52.16.611728 +0200,
15,C:\Users\id05278\Desktop\MLLM matteo\Task and screenshots\experiment-20250603T085947Z-1-001\experiment\responses_files\prompt_15.xlsx,C:\Users\id05278\Desktop\MLLM matteo\Task and screenshots\experiment-20250603T085947Z-1-001\experiment\responses_files\img_prompt_15.jpg,What is the title of Naomi Klein's book?,15,15.1,The title of Naomi Klein's book is "The Shock Doctrine: The Rise of Disaster Capitalism.",5,gpt-4v,0,1,1,14,0,1,1,0,174.39130240000668,,,,,,,,,,,,,,,,,,,,,,,,,,,174.36477440000453,What is the title of Naomi Klein's book?,The title of Naomi Klein's book is "The Shock Doctrine: The Rise of Disaster Capitalism.",174.39130240000668,175.3920974000066,175.39213250001194,175.42469320000964,179.22572500001115,space,3.7730903000046965,None,179.42059380000865,179.4593571000005,179.4593571000005,179.4593571000005,179.4593571000005,185.9248258000007,185.9248258000007,186.5310787000053,space,0.5941104999947129,None,5,1.8345595999999205,4,4.9363633999892045,5,6.438867000004393,,,,,,,,,,,,,,,,,,,,,1,001,2025-09-04_16h52.06.478,TEST_eye_tracker,2024.1.5,None,2025-09-04 16h52.16.611728 +0200,
15,C:\Users\id05278\Desktop\MLLM matteo\Task and screenshots\experiment-20250603T085947Z-1-001\experiment\responses_files\prompt_15.xlsx,C:\Users\id05278\Desktop\MLLM matteo\Task and screenshots\experiment-20250603T085947Z-1-001\experiment\responses_files\img_prompt_15.jpg,What is the title of Naomi Klein's book?,,,0.888,,,0,1,1,14,,,,,,,,,,,,,,,,,,,,,,,,,,,,,,,,,What is the title of Naomi Klein's book?,0.888,,,,,,,,,,,,,,,,,,,,,,,,,,186.58051949999935,186.59682460001204,186.59682460001204,190.02494490001118,190.02494490001118,190.7611365000048,1,3.3773100999969756,space,0.7256242000003112,None,,,,,,,,,,1,001,2025-09-04_16h52.06.478,TEST_eye_tracker,2024.1.5,None,2025-09-04 16h52.16.611728 +0200,
25,C:\Users\id05278\Desktop\MLLM matteo\Task and screenshots\experiment-20250603T085947Z-1-001\experiment\responses_files\prompt_25.xlsx,C:\Users\id05278\Desktop\MLLM matteo\Task and screenshots\experiment-20250603T085947Z-1-001\experiment\responses_files\img_prompt_25.jpg,Could you give a blow-by-blow description of the image?,25,25.2,"The image features a dining table with a plate of food, including a variety of snacks and a can of soda. The plate is placed on a table with a colorful cloth, adding a touch of elegance to the scene. There are several carrots scattered across the plate, with some of them placed closer to the edge and others in the middle. Additionally, a few oranges are also present on the plate, adding a pop of color to the arrangement. The can of soda is positioned next to the plate, ready to be enjoyed alongside the snacks. The overall scene is a casual and inviting dining experience, with a mix of healthy and indulgent food options.",4.333333333333333,LLaVA-RLHF-7b-v1.5-224,0,2,2,24,0,0,0,1,202.7578390000126,,,,,,,,,,,,,,,,190.81992829999945,190.83100679999916,191.3251336000103,191.32514710001124,191.35977619999903,191.35977619999903,191.35977619999903,202.2267916000128,space,10.839071299997158,None,202.7496691000124,Could you give a blow-by-blow description of the image?,"The image features a dining table with a plate of food, including a variety of snacks and a can of soda. The plate is placed on a table with a colorful cloth, adding a touch of elegance to the scene. There are several carrots scattered across the plate, with some of them placed closer to the edge and others in the middle. Additionally, a few oranges are also present on the plate, adding a pop of color to the arrangement. The can of soda is positioned next to the plate, ready to be enjoyed alongside the snacks. The overall scene is a casual and inviting dining experience, with a mix of healthy and indulgent food options.",202.7578390000126,203.75817130001087,203.75818470001104,203.79301590000978,235.32630359999894,space,31.518497600001865,None,235.53366980000283,235.57392850000178,235.57392850000178,235.57392850000178,235.57392850000178,241.9248484000127,241.9248484000127,243.06462460001057,space,1.1292771000007633,None,4,2.488422399997944,4,4.65789550000045,5,6.32600359999924,,,,,,,,,,,,,,,,,,,,,1,001,2025-09-04_16h52.06.478,TEST_eye_tracker,2024.1.5,None,2025-09-04 16h52.16.611728 +0200,
25,C:\Users\id05278\Desktop\MLLM matteo\Task and screenshots\experiment-20250603T085947Z-1-001\experiment\responses_files\prompt_25.xlsx,C:\Users\id05278\Desktop\MLLM matteo\Task and screenshots\experiment-20250603T085947Z-1-001\experiment\responses_files\img_prompt_25.jpg,Could you give a blow-by-blow description of the image?,25,25.1,"The image shows a meal arrangement on a patterned textile surface. At the center is a white, round plate that contains an assortment of food items. There's a can of Fanta with an orange flavor, which seems to be the drink of choice. The food items include what appears to be pasta shells, neatly arranged on one side of the plate, and orange wedges with some of the peel still attached, placed on the opposite side. Additionally, there are orange-colored crackers, contributing to the color theme, and a whole, unpeeled carrot lying beside the other items on the plate. The background textile has a floral pattern with a mix of vibrant colors, adding a decorative backdrop to the meal presentation.",3,gpt-4v,0,2,2,24,0,1,1,0,243.09164730001066,,,,,,,,,,,,,,,,,,,,,,,,,,,243.06522490001225,Could you give a blow-by-blow description of the image?,"The image shows a meal arrangement on a patterned textile surface. At the center is a white, round plate that contains an assortment of food items. There's a can of Fanta with an orange flavor, which seems to be the drink of choice. The food items include what appears to be pasta shells, neatly arranged on one side of the plate, and orange wedges with some of the peel still attached, placed on the opposite side. Additionally, there are orange-colored crackers, contributing to the color theme, and a whole, unpeeled carrot lying beside the other items on the plate. The background textile has a floral pattern with a mix of vibrant colors, adding a decorative backdrop to the meal presentation.",243.09164730001066,244.09162490000017,244.09163950000948,244.1261353000009,287.4596261000115,space,43.32779070000106,None,287.66923530001077,287.708323800005,287.708323800005,287.708323800005,287.708323800005,297.69180960000085,297.69180960000085,298.33959909999976,space,0.6018819999881089,None,5,5.6187731999962125,4,8.121954400005052,5,9.956468100004713,,,,,,,,,,,,,,,,,,,,,1,001,2025-09-04_16h52.06.478,TEST_eye_tracker,2024.1.5,None,2025-09-04 16h52.16.611728 +0200,
25,C:\Users\id05278\Desktop\MLLM matteo\Task and screenshots\experiment-20250603T085947Z-1-001\experiment\responses_files\prompt_25.xlsx,C:\Users\id05278\Desktop\MLLM matteo\Task and screenshots\experiment-20250603T085947Z-1-001\experiment\responses_files\img_prompt_25.jpg,Could you give a blow-by-blow description of the image?,,,0.888,,,0,2,2,24,,,,,,,,,,,,,,,,,,,,,,,,,,,,,,,,,Could you give a blow-by-blow description of the image?,0.888,,,,,,,,,,,,,,,,,,,,,,,,,,298.39282600001025,298.40739320000284,298.40739320000284,301.2915691000089,301.2915691000089,302.0946935000102,1,2.8319480000063777,space,0.7945821000030264,None,,,,,,,,,,1,001,2025-09-04_16h52.06.478,TEST_eye_tracker,2024.1.5,None,2025-09-04 16h52.16.611728 +0200,
27,C:\Users\id05278\Desktop\MLLM matteo\Task and screenshots\experiment-20250603T085947Z-1-001\experiment\responses_files\prompt_27.xlsx,C:\Users\id05278\Desktop\MLLM matteo\Task and screenshots\experiment-20250603T085947Z-1-001\experiment\responses_files\img_prompt_27.jpg,What is the possible theme of this image?,27,27.2,"The image appears to be centered around a meal at a restaurant, featuring what looks like a sandwich possibly with pulled pork, served with French fries and a side of coleslaw, accompanied by a small bowl of sauce. On the other plate, there seems to be a rice dish with vegetables and grilled chicken breast, served with slices of toasted bread. The drinks visible are likely soft drinks. The theme suggests a casual dining experience, possibly at an American-style restaurant or diner, with a focus on hearty, comfort food dishes.",3.666666666666667,gpt-4v,0,3,3,26,0,0,0,1,314.0891080000001,,,,,,,,,,,,,,,,302.1613342000055,302.1732628000027,302.6589161000011,302.65894860000117,302.6932921000116,302.6932921000116,302.6932921000116,313.59366900000896,space,10.873317900011898,None,314.0808934000088,What is the possible theme of this image?,"The image appears to be centered around a meal at a restaurant, featuring what looks like a sandwich possibly with pulled pork, served with French fries and a side of coleslaw, accompanied by a small bowl of sauce. On the other plate, there seems to be a rice dish with vegetables and grilled chicken breast, served with slices of toasted bread. The drinks visible are likely soft drinks. The theme suggests a casual dining experience, possibly at an American-style restaurant or diner, with a focus on hearty, comfort food dishes.",314.0891080000001,315.0917240999988,315.0917358000006,315.1260664000001,345.8262568000064,space,30.673304399999324,None,346.0337184000091,346.07374060001166,346.07374060001166,346.07374060001166,346.07374060001166,352.25835980000556,352.25835980000556,352.56416439999884,space,0.2839922999992268,None,4,3.4885816000023624,4,4.925521299999673,5,6.159135199995944,,,,,,,,,,,,302.6932921000116,,,,,,,,,1,001,2025-09-04_16h52.06.478,TEST_eye_tracker,2024.1.5,None,2025-09-04 16h52.16.611728 +0200,
27,C:\Users\id05278\Desktop\MLLM matteo\Task and screenshots\experiment-20250603T085947Z-1-001\experiment\responses_files\prompt_27.xlsx,C:\Users\id05278\Desktop\MLLM matteo\Task and screenshots\experiment-20250603T085947Z-1-001\experiment\responses_files\img_prompt_27.jpg,What is the possible theme of this image?,27,27.1,"The possible theme of this image could be a casual meal, as it features two plates with different dishes on them. One plate contains a sandwich and fries while another has a salad and a side dish like rice or beans. These dishes are served in cups and bowls on white dining tables, which suggests that they might be part of an evening gathering or social event where people enjoy their meals together.",4.333333333333333,VisualGLM-6b,0,3,3,26,0,1,1,0,352.5915774000023,,,,,,,,,,,,,,,,,,,,,,,,,,,352.5647484000074,What is the possible theme of this image?,"The possible theme of this image could be a casual meal, as it features two plates with different dishes on them. One plate contains a sandwich and fries while another has a salad and a side dish like rice or beans. These dishes are served in cups and bowls on white dining tables, which suggests that they might be part of an evening gathering or social event where people enjoy their meals together.",352.5915774000023,353.5917896000028,353.59180010001,353.6255029000022,373.02601090000826,space,19.372776099990006,None,373.23109660000773,373.26980580000964,373.26980580000964,373.26980580000964,373.26980580000964,378.6585444000084,378.6585444000084,378.96432020000066,space,0.27572639999561943,None,4,2.125261600012891,4,3.7597364999965066,5,5.362452300003497,,,,,,,,,,,,,,,,,,,,,1,001,2025-09-04_16h52.06.478,TEST_eye_tracker,2024.1.5,None,2025-09-04 16h52.16.611728 +0200,
27,C:\Users\id05278\Desktop\MLLM matteo\Task and screenshots\experiment-20250603T085947Z-1-001\experiment\responses_files\prompt_27.xlsx,C:\Users\id05278\Desktop\MLLM matteo\Task and screenshots\experiment-20250603T085947Z-1-001\experiment\responses_files\img_prompt_27.jpg,What is the possible theme of this image?,,,0.888,,,0,3,3,26,,,,,,,,,,,,,,,,,,,,,,,,,,,,,,,,,What is the possible theme of this image?,0.888,,,,,,,,,,,,,,,,,,,,,,,,,,379.0204555000091,379.0350572000025,379.0350572000025,380.85847060001106,380.85847060001106,381.7943559999985,2,1.7714253000012832,space,0.9072922999912407,None,,,,,,,,,,1,001,2025-09-04_16h52.06.478,TEST_eye_tracker,2024.1.5,None,2025-09-04 16h52.16.611728 +0200,
26,C:\Users\id05278\Desktop\MLLM matteo\Task and screenshots\experiment-20250603T085947Z-1-001\experiment\responses_files\prompt_26.xlsx,C:\Users\id05278\Desktop\MLLM matteo\Task and screenshots\experiment-20250603T085947Z-1-001\experiment\responses_files\img_prompt_26.jpg,What is the purpose of the Om chanting mentioned in the image?,26,26.2,"The purpose of the Om chanting in the image is to promote positive transformation and meditation. The group of people is sitting in a circle, focusing on the chant, which is a deep mantra that helps them connect with their inner selves and achieve a state of mindfulness. This practice can lead to personal growth, relaxation, and stress reduction. The image also suggests that the Om chanting is being used as a tool for positive transformation, which can be achieved through meditation and mindfulness practices.",5,llava1.5-13b,0,4,4,25,0,0,0,1,401.0310637000075,,,,,,,,,,,,,,,,381.85939120000694,381.8712127000035,382.3595107000001,382.35954140000104,382.39348840000457,382.39348840000457,382.39348840000457,400.52728170000773,space,18.124947000003885,None,401.02210360000026,What is the purpose of the Om chanting mentioned in the image?,"The purpose of the Om chanting in the image is to promote positive transformation and meditation. The group of people is sitting in a circle, focusing on the chant, which is a deep mantra that helps them connect with their inner selves and achieve a state of mindfulness. This practice can lead to personal growth, relaxation, and stress reduction. The image also suggests that the Om chanting is being used as a tool for positive transformation, which can be achieved through meditation and mindfulness practices.",401.0310637000075,402.02528640000673,402.02529800000775,402.05865460001223,428.35944840000593,space,26.291402900009416,None,428.56677620000846,428.60575320001226,428.60575320001226,428.60575320001226,428.60575320001226,439.7253018000047,439.7253018000047,440.4312263000029,space,0.69728860000032,None,5,5.955167499996605,5,8.890670699998736,5,11.093700599987642,,,,,,,,,,,,382.39348840000457,,,,,,,,,1,001,2025-09-04_16h52.06.478,TEST_eye_tracker,2024.1.5,None,2025-09-04 16h52.16.611728 +0200,
26,C:\Users\id05278\Desktop\MLLM matteo\Task and screenshots\experiment-20250603T085947Z-1-001\experiment\responses_files\prompt_26.xlsx,C:\Users\id05278\Desktop\MLLM matteo\Task and screenshots\experiment-20250603T085947Z-1-001\experiment\responses_files\img_prompt_26.jpg,What is the purpose of the Om chanting mentioned in the image?,26,26.1,The purpose of the Om chanting mentioned in the image is to meditate and chant deep mantra chants for positive transformation.,3,Qwen-VL-Chat,0,4,4,25,0,1,1,0,440.45854650001274,,,,,,,,,,,,,,,,,,,,,,,,,,,440.431797600002,What is the purpose of the Om chanting mentioned in the image?,The purpose of the Om chanting mentioned in the image is to meditate and chant deep mantra chants for positive transformation.,440.45854650001274,441.45863970000937,441.458652500005,441.49189640000986,448.6595509000035,space,7.162757500002044,None,448.8526439000125,448.8917139000114,448.8917139000114,448.8917139000114,448.8917139000114,454.2588939999987,454.2588939999987,454.7648618000094,space,0.4832600000081584,None,5,1.602608400004101,3,3.938469000000623,5,5.340995200007455,,,,,,,,,,,,,,,,,,,,,1,001,2025-09-04_16h52.06.478,TEST_eye_tracker,2024.1.5,None,2025-09-04 16h52.16.611728 +0200,
26,C:\Users\id05278\Desktop\MLLM matteo\Task and screenshots\experiment-20250603T085947Z-1-001\experiment\responses_files\prompt_26.xlsx,C:\Users\id05278\Desktop\MLLM matteo\Task and screenshots\experiment-20250603T085947Z-1-001\experiment\responses_files\img_prompt_26.jpg,What is the purpose of the Om chanting mentioned in the image?,,,0.888,,,0,4,4,25,,,,,,,,,,,,,,,,,,,,,,,,,,,,,,,,,What is the purpose of the Om chanting mentioned in the image?,0.888,,,,,,,,,,,,,,,,,,,,,,,,,,454.8252591000055,454.84024679999857,454.84024679999857,457.3920638999989,457.3920638999989,458.162542200007,1,2.5000612000003457,space,0.7425036999920849,None,,,,,,,,,,1,001,2025-09-04_16h52.06.478,TEST_eye_tracker,2024.1.5,None,2025-09-04 16h52.16.611728 +0200,
18,C:\Users\id05278\Desktop\MLLM matteo\Task and screenshots\experiment-20250603T085947Z-1-001\experiment\responses_files\prompt_18.xlsx,C:\Users\id05278\Desktop\MLLM matteo\Task and screenshots\experiment-20250603T085947Z-1-001\experiment\responses_files\img_prompt_18.jpg,What time does the clock on the building show?,18,18.1,The clock on the building shows approximately 3:00.,4,gpt-4v,0,5,5,17,0,0,0,0,470.6536868000112,,,,,,,,,,,,,,,,458.2278907,458.23868870000297,458.72590879999916,458.72592540000915,458.7602290000068,458.7602290000068,458.7602290000068,470.2271419000026,space,11.438701500010211,None,470.6454025999992,What time does the clock on the building show?,The clock on the building shows approximately 3:00.,470.6536868000112,471.6587800999987,471.65879090000817,471.6933676000044,475.76159840000037,space,4.065587700009928,None,475.95829510000476,475.99778630000947,475.99778630000947,475.99778630000947,475.99778630000947,482.95882970000093,482.95882970000093,483.4313817000075,space,0.4569458000041777,None,4,2.5307584999973187,4,5.832498700008728,5,6.935033000001567,,,,,,,,,,,,458.7602290000068,,,,,,,,,1,001,2025-09-04_16h52.06.478,TEST_eye_tracker,2024.1.5,None,2025-09-04 16h52.16.611728 +0200,
18,C:\Users\id05278\Desktop\MLLM matteo\Task and screenshots\experiment-20250603T085947Z-1-001\experiment\responses_files\prompt_18.xlsx,C:\Users\id05278\Desktop\MLLM matteo\Task and screenshots\experiment-20250603T085947Z-1-001\experiment\responses_files\img_prompt_18.jpg,What time does the clock on the building show?,18,18.2,The clock on the building shows 12:30.,4.666666666666667,Qwen-VL-Chat,0,5,5,17,0,1,1,1,483.45859620001283,,,,,,,,,,,,,,,,,,,,,,,,,,,483.4319875000074,What time does the clock on the building show?,The clock on the building shows 12:30.,483.45859620001283,484.4588275999995,484.458838800012,484.4931082000112,488.0929104000097,space,3.5690455000003567,None,488.2878882000077,488.32642589999887,488.32642589999887,488.32642589999887,488.32642589999887,497.7254613000114,497.7254613000114,498.1323823999992,space,0.38454579999961425,None,1,4.634724599993206,1,8.170047799998429,5,9.372815000009723,,,,,,,,,,,,,,,,,,,,,1,001,2025-09-04_16h52.06.478,TEST_eye_tracker,2024.1.5,None,2025-09-04 16h52.16.611728 +0200,
18,C:\Users\id05278\Desktop\MLLM matteo\Task and screenshots\experiment-20250603T085947Z-1-001\experiment\responses_files\prompt_18.xlsx,C:\Users\id05278\Desktop\MLLM matteo\Task and screenshots\experiment-20250603T085947Z-1-001\experiment\responses_files\img_prompt_18.jpg,What time does the clock on the building show?,,,0.888,,,0,5,5,17,,,,,,,,,,,,,,,,,,,,,,,,,,,,,,,,,What time does the clock on the building show?,0.888,,,,,,,,,,,,,,,,,,,,,,,,,,498.19396300001245,498.21099560000584,498.21099560000584,499.19189670000924,499.19189670000924,500.1611350000021,1,0.9312044000107562,space,0.949948299996322,None,,,,,,,,,,1,001,2025-09-04_16h52.06.478,TEST_eye_tracker,2024.1.5,None,2025-09-04 16h52.16.611728 +0200,
28,C:\Users\id05278\Desktop\MLLM matteo\Task and screenshots\experiment-20250603T085947Z-1-001\experiment\responses_files\prompt_28.xlsx,C:\Users\id05278\Desktop\MLLM matteo\Task and screenshots\experiment-20250603T085947Z-1-001\experiment\responses_files\img_prompt_28.jpg,What is the quote on the image?,28,28.1,"My goal is not to be better than anyone else, but rather to use my own abilities and passions in order to achieve success. I am a person who values self-improvement and growth as much as others do. The phrase "my goal is not to be better than anyone else" reflects my determination for personal development and progress. It emphasizes that I will strive to improve myself regardless of external factors or competition.",2.333333333333333,VisualGLM-6b,0,6,6,27,0,0,0,0,513.7796256000001,,,,,,,,,,,,,,,,500.2239622000052,500.2345204000012,500.7253895000031,500.72540039999876,500.7602612000046,500.7602612000046,500.7602612000046,513.4274318000098,space,12.654045100003714,None,513.7710235999984,What is the quote on the image?,"My goal is not to be better than anyone else, but rather to use my own abilities and passions in order to achieve success. I am a person who values self-improvement and growth as much as others do. The phrase "my goal is not to be better than anyone else" reflects my determination for personal development and progress. It emphasizes that I will strive to improve myself regardless of external factors or competition.",513.7796256000001,514.7920970000123,514.7921114000055,514.8266825000028,531.2597735000018,space,16.404271299994434,None,531.461561700009,531.5016010000109,531.5016010000109,531.5016010000109,531.5016010000109,537.7254519000126,537.7254519000126,538.0313028000091,space,0.27243120000639465,None,3,2.027209700012463,2,4.930002599998261,5,6.198214600008214,,,,,,,,,,,,,,,,,,,,,1,001,2025-09-04_16h52.06.478,TEST_eye_tracker,2024.1.5,None,2025-09-04 16h52.16.611728 +0200,
28,C:\Users\id05278\Desktop\MLLM matteo\Task and screenshots\experiment-20250603T085947Z-1-001\experiment\responses_files\prompt_28.xlsx,C:\Users\id05278\Desktop\MLLM matteo\Task and screenshots\experiment-20250603T085947Z-1-001\experiment\responses_files\img_prompt_28.jpg,What is the quote on the image?,28,28.2,"The quote on the image is: "My goal is not to be better than anyone else, but to be better than I used to be." - Wayne Dyer",4.333333333333333,Qwen-VL-Chat,0,6,6,27,0,1,1,1,538.0587647000066,,,,,,,,,,,,,,,,,,,,,,,,,,,538.0319761999999,What is the quote on the image?,"The quote on the image is: "My goal is not to be better than anyone else, but to be better than I used to be." - Wayne Dyer",538.0587647000066,539.0587718000024,539.0587833000027,539.093331600001,543.9929963000031,space,4.888629100008984,None,544.1899502000015,544.2290375000011,544.2290375000011,544.2290375000011,544.2290375000011,547.9255488000053,547.9255488000053,548.2978142000065,space,0.3528361000062432,None,5,1.0994804999936605,5,2.66841120000754,5,3.67009370001324,,,,,,,,,,,,,,,,,,,,,1,001,2025-09-04_16h52.06.478,TEST_eye_tracker,2024.1.5,None,2025-09-04 16h52.16.611728 +0200,
28,C:\Users\id05278\Desktop\MLLM matteo\Task and screenshots\experiment-20250603T085947Z-1-001\experiment\responses_files\prompt_28.xlsx,C:\Users\id05278\Desktop\MLLM matteo\Task and screenshots\experiment-20250603T085947Z-1-001\experiment\responses_files\img_prompt_28.jpg,What is the quote on the image?,,,0.888,,,0,6,6,27,,,,,,,,,,,,,,,,,,,,,,,,,,,,,,,,,What is the quote on the image?,0.888,,,,,,,,,,,,,,,,,,,,,,,,,,548.3659677000105,548.3820085000043,548.3820085000043,550.0585248999996,550.0585248999996,550.6279383000074,2,1.6261229000083404,space,0.5479052000009688,None,,,,,,,,,,1,001,2025-09-04_16h52.06.478,TEST_eye_tracker,2024.1.5,None,2025-09-04 16h52.16.611728 +0200,
12,C:\Users\id05278\Desktop\MLLM matteo\Task and screenshots\experiment-20250603T085947Z-1-001\experiment\responses_files\prompt_12.xlsx,C:\Users\id05278\Desktop\MLLM matteo\Task and screenshots\experiment-20250603T085947Z-1-001\experiment\responses_files\img_prompt_12.jpg,What is the man doing with the skateboard?,12,12.2,"The man is performing a skateboarding trick known as an "ollie." This is a fundamental skateboarding trick where the rider and board leap into the air without the use of the rider's hands. The trick is executed by snapping the tail of the skateboard down while jumping, which causes the board to pop into the air. It appears that he is doing this on a city street with buildings and clear blue skies in the background.",3.333333333333333,gpt-4v,0,7,7,11,0,0,0,1,559.7227836000093,,,,,,,,,,,,,,,,550.6915832000086,550.7020034000016,551.192219900011,551.1922311000089,551.2272993000079,551.2272993000079,551.2272993000079,559.2275186000043,space,7.978972600001725,None,559.714530000012,What is the man doing with the skateboard?,"The man is performing a skateboarding trick known as an "ollie." This is a fundamental skateboarding trick where the rider and board leap into the air without the use of the rider's hands. The trick is executed by snapping the tail of the skateboard down while jumping, which causes the board to pop into the air. It appears that he is doing this on a city street with buildings and clear blue skies in the background.",559.7227836000093,560.7255426000047,560.7255538000027,560.7590119000088,582.593363100008,space,21.823493200005032,None,582.8001109000033,582.8392714000074,582.8392714000074,582.8392714000074,582.8392714000074,585.8589460000076,585.8589460000076,586.2067250000109,space,0.31557259999681264,None,5,1.5220837000088068,5,2.191105299993069,5,2.994664700003341,,,,,,,,,,,,,,,,,,,,,1,001,2025-09-04_16h52.06.478,TEST_eye_tracker,2024.1.5,None,2025-09-04 16h52.16.611728 +0200,
12,C:\Users\id05278\Desktop\MLLM matteo\Task and screenshots\experiment-20250603T085947Z-1-001\experiment\responses_files\prompt_12.xlsx,C:\Users\id05278\Desktop\MLLM matteo\Task and screenshots\experiment-20250603T085947Z-1-001\experiment\responses_files\img_prompt_12.jpg,What is the man doing with the skateboard?,12,12.1,"The man is performing a trick on his skateboard, jumping in the air while riding it.",4.666666666666667,Qwen-VL-Chat,0,7,7,11,0,1,1,0,586.2256175000075,,,,,,,,,,,,,,,,,,,,,,,,,,,586.2072794000123,What is the man doing with the skateboard?,"The man is performing a trick on his skateboard, jumping in the air while riding it.",586.2256175000075,587.2257934000081,587.2258070000098,587.2591263000068,590.6278464000061,space,3.3550619000016013,None,590.8296685000096,590.8685931000073,590.8685931000073,590.8685931000073,590.8685931000073,596.9923801000114,596.9923801000114,597.6984230000089,space,0.6945623999927193,None,2,2.5933282999903895,1,4.495343400005368,5,6.097032000005129,,,,,,,,,,,,,,,,,,,,,1,001,2025-09-04_16h52.06.478,TEST_eye_tracker,2024.1.5,None,2025-09-04 16h52.16.611728 +0200,
12,C:\Users\id05278\Desktop\MLLM matteo\Task and screenshots\experiment-20250603T085947Z-1-001\experiment\responses_files\prompt_12.xlsx,C:\Users\id05278\Desktop\MLLM matteo\Task and screenshots\experiment-20250603T085947Z-1-001\experiment\responses_files\img_prompt_12.jpg,What is the man doing with the skateboard?,,,0.888,,,0,7,7,11,,,,,,,,,,,,,,,,,,,,,,,,,,,,,,,,,What is the man doing with the skateboard?,0.888,,,,,,,,,,,,,,,,,,,,,,,,,,597.7700783000037,597.7850097000046,597.7850097000046,601.8589168000035,601.8589168000035,602.3612666000117,1,4.021773599990411,space,0.49278359999880195,None,,,,,,,,,,1,001,2025-09-04_16h52.06.478,TEST_eye_tracker,2024.1.5,None,2025-09-04 16h52.16.611728 +0200,
13,C:\Users\id05278\Desktop\MLLM matteo\Task and screenshots\experiment-20250603T085947Z-1-001\experiment\responses_files\prompt_13.xlsx,C:\Users\id05278\Desktop\MLLM matteo\Task and screenshots\experiment-20250603T085947Z-1-001\experiment\responses_files\img_prompt_13.jpg,What is the size of the bowl in the image?,13,13.1,The bowl in the image is small.,2.333333333333333,llava1.5-7b,0,8,8,12,0,0,0,0,611.1136362000107,,,,,,,,,,,,,,,,602.4279655999999,602.4383708000096,602.9261903000006,602.9262070000113,602.96064260001,602.96064260001,602.96064260001,610.7616872000071,space,7.789079199996195,None,611.1044610000099,What is the size of the bowl in the image?,The bowl in the image is small.,611.1136362000107,612.1256911000091,612.1257027000102,612.158831400011,615.5932686000015,space,3.4148884000023827,None,615.787616600006,615.8267407000094,615.8267407000094,615.8267407000094,615.8267407000094,621.3589841000066,621.3589841000066,622.3994004999986,space,1.0156570999970427,None,2,2.2348211000062292,1,3.5032458000059705,5,5.507275199997821,,,,,,,,,,,,602.96064260001,,,,,,,,,1,001,2025-09-04_16h52.06.478,TEST_eye_tracker,2024.1.5,None,2025-09-04 16h52.16.611728 +0200,
13,C:\Users\id05278\Desktop\MLLM matteo\Task and screenshots\experiment-20250603T085947Z-1-001\experiment\responses_files\prompt_13.xlsx,C:\Users\id05278\Desktop\MLLM matteo\Task and screenshots\experiment-20250603T085947Z-1-001\experiment\responses_files\img_prompt_13.jpg,What is the size of the bowl in the image?,13,13.2,"The bowl in the image contains miniature items, as indicated by the comparison with the penny. To provide an accurate estimate of the bowl's size, I would need to know the dimensions of the coin, which appears to be a U.S. penny. U.S. pennies have a diameter of 0.75 inches (19.05 mm). By comparing the bowl with the penny, we can visually estimate that the bowl is slightly more than twice the diameter of the penny, making the bowl approximately 1.5 to 2 inches in diameter. However, this is a rough estimate, and the actual size could vary.",3.333333333333333,gpt-4v,0,8,8,12,0,1,1,1,622.4256255000073,,,,,,,,,,,,,,,,,,,,,,,,,,,622.3999915000022,What is the size of the bowl in the image?,"The bowl in the image contains miniature items, as indicated by the comparison with the penny. To provide an accurate estimate of the bowl's size, I would need to know the dimensions of the coin, which appears to be a U.S. penny. U.S. pennies have a diameter of 0.75 inches (19.05 mm). By comparing the bowl with the penny, we can visually estimate that the bowl is slightly more than twice the diameter of the penny, making the bowl approximately 1.5 to 2 inches in diameter. However, this is a rough estimate, and the actual size could vary.",622.4256255000073,623.4257897000061,623.4258016000094,623.4602518000029,646.4601402000117,space,22.971007399988594,None,646.6699159000127,646.7100967000006,646.7100967000006,646.7100967000006,646.7100967000006,652.5588375000079,652.5588375000079,652.9317244000122,space,0.35192279999319,None,4,2.351952099998016,4,4.854342100006761,5,5.823941700000432,,,,,,,,,,,,,,,,,,,,,1,001,2025-09-04_16h52.06.478,TEST_eye_tracker,2024.1.5,None,2025-09-04 16h52.16.611728 +0200,
13,C:\Users\id05278\Desktop\MLLM matteo\Task and screenshots\experiment-20250603T085947Z-1-001\experiment\responses_files\prompt_13.xlsx,C:\Users\id05278\Desktop\MLLM matteo\Task and screenshots\experiment-20250603T085947Z-1-001\experiment\responses_files\img_prompt_13.jpg,What is the size of the bowl in the image?,,,0.888,,,0,8,8,12,,,,,,,,,,,,,,,,,,,,,,,,,,,,,,,,,What is the size of the bowl in the image?,0.888,,,,,,,,,,,,,,,,,,,,,,,,,,653.0073955000116,653.0220966000052,653.0220966000052,654.4923405000009,654.4923405000009,655.0617722000025,2,1.4183134000049904,space,0.547107699996559,None,,,,,,,,,,1,001,2025-09-04_16h52.06.478,TEST_eye_tracker,2024.1.5,None,2025-09-04 16h52.16.611728 +0200,
29,C:\Users\id05278\Desktop\MLLM matteo\Task and screenshots\experiment-20250603T085947Z-1-001\experiment\responses_files\prompt_29.xlsx,C:\Users\id05278\Desktop\MLLM matteo\Task and screenshots\experiment-20250603T085947Z-1-001\experiment\responses_files\img_prompt_29.jpg,What is the title of the book or study mentioned in the image?,29,29.2,Reaching for Home: Global Learning on Family Reintegration in Low and Lower-Middle Income Countries,2.666666666666667,llava1.5-13b,0,9,9,28,0,0,0,1,669.4858237000008,,,,,,,,,,,,,,,,655.1266410000098,655.1378485000023,655.6261455000058,655.6261592000083,655.6605519000004,655.6605519000004,655.6605519000004,669.0278850000032,space,13.361375699998462,None,669.4774307000043,What is the title of the book or study mentioned in the image?,Reaching for Home: Global Learning on Family Reintegration in Low and Lower-Middle Income Countries,669.4858237000008,670.4926236000028,670.4926367000007,670.5268992000056,675.5599227000057,space,5.0316760999994585,None,675.7546356000094,675.7966007000068,675.7966007000068,675.7966007000068,675.7966007000068,679.5256783000077,679.5256783000077,679.764874600005,space,0.22499889999744482,None,5,0.900572500002454,5,2.0374958000029437,5,3.7051646999898367,,,,,,,,,,,,655.6605519000004,,,,,,,,,1,001,2025-09-04_16h52.06.478,TEST_eye_tracker,2024.1.5,None,2025-09-04 16h52.16.611728 +0200,
29,C:\Users\id05278\Desktop\MLLM matteo\Task and screenshots\experiment-20250603T085947Z-1-001\experiment\responses_files\prompt_29.xlsx,C:\Users\id05278\Desktop\MLLM matteo\Task and screenshots\experiment-20250603T085947Z-1-001\experiment\responses_files\img_prompt_29.jpg,What is the title of the book or study mentioned in the image?,29,29.1,Reaching for Home,5,fuyu-8b,0,9,9,28,0,1,1,0,679.7922717000038,,,,,,,,,,,,,,,,,,,,,,,,,,,679.7654336999985,What is the title of the book or study mentioned in the image?,Reaching for Home,679.7922717000038,680.7923625000112,680.7923777000105,680.8255968000012,682.7266728000104,space,1.8851315999927465,None,682.9211497000069,682.9606269000069,682.9606269000069,682.9606269000069,682.9606269000069,687.1592285000079,687.1592285000079,687.4982663000119,space,0.3113108999968972,None,2,2.501231899994309,1,3.4702067999896826,5,4.171704000007594,,,,,,,,,,,,,,,,,,,,,1,001,2025-09-04_16h52.06.478,TEST_eye_tracker,2024.1.5,None,2025-09-04 16h52.16.611728 +0200,
29,C:\Users\id05278\Desktop\MLLM matteo\Task and screenshots\experiment-20250603T085947Z-1-001\experiment\responses_files\prompt_29.xlsx,C:\Users\id05278\Desktop\MLLM matteo\Task and screenshots\experiment-20250603T085947Z-1-001\experiment\responses_files\img_prompt_29.jpg,What is the title of the book or study mentioned in the image?,,,0.888,,,0,9,9,28,,,,,,,,,,,,,,,,,,,,,,,,,,,,,,,,,What is the title of the book or study mentioned in the image?,0.888,,,,,,,,,,,,,,,,,,,,,,,,,,687.5760828000057,687.5908718999999,687.5908718999999,690.5924128000042,690.5924128000042,691.161463299999,1,2.94962499999383,space,0.566206699993927,None,,,,,,,,,,1,001,2025-09-04_16h52.06.478,TEST_eye_tracker,2024.1.5,None,2025-09-04 16h52.16.611728 +0200,
14,C:\Users\id05278\Desktop\MLLM matteo\Task and screenshots\experiment-20250603T085947Z-1-001\experiment\responses_files\prompt_14.xlsx,C:\Users\id05278\Desktop\MLLM matteo\Task and screenshots\experiment-20250603T085947Z-1-001\experiment\responses_files\img_prompt_14.jpg,Why is the quote "Little things can grow big" significant?,14,14.2,"The quote "Little things can grow big" is significant because it emphasizes the importance of small actions and their potential to have a significant impact over time. In the image, the shadows of four people are cast on the ground, suggesting that even the smallest of individuals can contribute to something bigger. This idea can be applied to various aspects of life, such as personal growth, relationships, or even community development. It serves as a reminder that even the smallest actions or contributions can have a lasting impact and contribute to the growth and success of a larger entity or goal.",1,llava1.5-13b,0,10,10,13,0,0,0,1,705.7576887000032,,,,,,,,,,,,,,,,691.2301141000062,691.2394910000003,691.7263260000036,691.7263390000007,691.7608005000075,691.7608005000075,691.7608005000075,705.2941222000081,space,13.525456999996095,None,705.7496468000027,Why is the quote "Little things can grow big" significant?,"The quote "Little things can grow big" is significant because it emphasizes the importance of small actions and their potential to have a significant impact over time. In the image, the shadows of four people are cast on the ground, suggesting that even the smallest of individuals can contribute to something bigger. This idea can be applied to various aspects of life, such as personal growth, relationships, or even community development. It serves as a reminder that even the smallest actions or contributions can have a lasting impact and contribute to the growth and success of a larger entity or goal.",705.7576887000032,706.7592965000076,706.7593092000025,706.7926099000033,729.126843200007,space,22.326064900000347,None,729.3340979000059,729.3735979000048,729.3735979000048,729.3735979000048,729.3735979000048,733.1924536000006,733.1924536000006,733.5984876000002,space,0.3739148999884492,None,5,1.3549880999926245,5,2.3568371000001207,5,3.7935785000008764,,,,,,,,,,,,691.7608005000075,,,,,,,,,1,001,2025-09-04_16h52.06.478,TEST_eye_tracker,2024.1.5,None,2025-09-04 16h52.16.611728 +0200,
14,C:\Users\id05278\Desktop\MLLM matteo\Task and screenshots\experiment-20250603T085947Z-1-001\experiment\responses_files\prompt_14.xlsx,C:\Users\id05278\Desktop\MLLM matteo\Task and screenshots\experiment-20250603T085947Z-1-001\experiment\responses_files\img_prompt_14.jpg,Why is the quote "Little things can grow big" significant?,14,14.1,"The quote "Little things can grow big" is significant because it emphasizes the importance of paying attention to small details and considering their potential impact. It suggests that seemingly insignificant occurrences or actions can have a significant impact on the bigger picture, and that one should not underestimate the power of small things. This quote can be applied in various contexts, such as personal growth, business, or even global issues, as it reminds us to be mindful of our actions and the potential consequences they may have. It encourages us to take a holistic view of life and recognize the interconnectedness of all things, even if they appear small at first glance.",2.333333333333333,Qwen-VL-Chat,0,10,10,13,0,1,1,0,733.6257119000074,,,,,,,,,,,,,,,,,,,,,,,,,,,733.5990424000047,Why is the quote "Little things can grow big" significant?,"The quote "Little things can grow big" is significant because it emphasizes the importance of paying attention to small details and considering their potential impact. It suggests that seemingly insignificant occurrences or actions can have a significant impact on the bigger picture, and that one should not underestimate the power of small things. This quote can be applied in various contexts, such as personal growth, business, or even global issues, as it reminds us to be mindful of our actions and the potential consequences they may have. It encourages us to take a holistic view of life and recognize the interconnectedness of all things, even if they appear small at first glance.",733.6257119000074,734.6259110000101,734.6259232000011,734.6593716000061,766.3602694000001,space,31.69115659999079,None,766.5699838,766.6092077000067,766.6092077000067,766.6092077000067,766.6092077000067,771.2257539999991,771.2257539999991,771.4653330000001,space,0.22908750000351574,None,5,2.3195861999993213,5,3.587780500005465,5,4.590316000001621,,,,,,,,,,,,,,,,,,,,,1,001,2025-09-04_16h52.06.478,TEST_eye_tracker,2024.1.5,None,2025-09-04 16h52.16.611728 +0200,
14,C:\Users\id05278\Desktop\MLLM matteo\Task and screenshots\experiment-20250603T085947Z-1-001\experiment\responses_files\prompt_14.xlsx,C:\Users\id05278\Desktop\MLLM matteo\Task and screenshots\experiment-20250603T085947Z-1-001\experiment\responses_files\img_prompt_14.jpg,Why is the quote "Little things can grow big" significant?,,,0.888,,,0,10,10,13,,,,,,,,,,,,,,,,,,,,,,,,,,,,,,,,,Why is the quote "Little things can grow big" significant?,0.888,,,,,,,,,,,,,,,,,,,,,,,,,,771.5454041000048,771.5608805000084,771.5608805000084,772.792505800011,772.792505800011,773.6620854000066,1,1.1803397000039695,space,0.8459548999962863,None,,,,,,,,,,1,001,2025-09-04_16h52.06.478,TEST_eye_tracker,2024.1.5,None,2025-09-04 16h52.16.611728 +0200,
17,C:\Users\id05278\Desktop\MLLM matteo\Task and screenshots\experiment-20250603T085947Z-1-001\experiment\responses_files\prompt_17.xlsx,C:\Users\id05278\Desktop\MLLM matteo\Task and screenshots\experiment-20250603T085947Z-1-001\experiment\responses_files\img_prompt_17.jpg,What is the full name of the institute mentioned in the image?,17,17.1,Julius Kuhn-Institutt,3.333333333333333,fuyu-8b,0,11,11,16,0,0,0,0,785.8891555000009,,,,,,,,,,,,,,,,773.7292371000076,773.7388751000108,774.2271057000034,774.2271394999989,774.2608018000028,774.2608018000028,774.2608018000028,785.5947324000008,space,11.329487900002277,None,785.8811860999995,What is the full name of the institute mentioned in the image?,Julius Kuhn-Institutt,785.8891555000009,786.8925790000067,786.8925984000089,786.9271015999984,789.7600356000039,space,2.8076556000014534,None,789.9530091000051,789.9917503000033,789.9917503000033,789.9917503000033,789.9917503000033,794.2258028000069,794.2258028000069,794.6986214000062,space,0.4360001999884844,None,3,1.6051918999874033,2,2.7060671000072034,5,4.207369499999913,,,,,,,,,,,,774.2608018000028,,,,,,,,,1,001,2025-09-04_16h52.06.478,TEST_eye_tracker,2024.1.5,None,2025-09-04 16h52.16.611728 +0200,
17,C:\Users\id05278\Desktop\MLLM matteo\Task and screenshots\experiment-20250603T085947Z-1-001\experiment\responses_files\prompt_17.xlsx,C:\Users\id05278\Desktop\MLLM matteo\Task and screenshots\experiment-20250603T085947Z-1-001\experiment\responses_files\img_prompt_17.jpg,What is the full name of the institute mentioned in the image?,17,17.2,"The full name of this Institute is "Juilliard University". It was established by a group of students from different universities and institutions, including Juilliard School of Music, where they were studying music theory and composition.",2.333333333333333,VisualGLM-6b,0,11,11,16,0,1,1,1,794.7257600000012,,,,,,,,,,,,,,,,,,,,,,,,,,,794.6991562000039,What is the full name of the institute mentioned in the image?,"The full name of this Institute is "Juilliard University". It was established by a group of students from different universities and institutions, including Juilliard School of Music, where they were studying music theory and composition.",794.7257600000012,795.7259235000092,795.7259421000053,795.7593163999991,805.1933683000098,space,9.430924999993294,None,805.3928091000125,805.4318442000076,805.4318442000076,805.4318442000076,805.4318442000076,808.8257245999994,808.8257245999994,809.2324862000096,space,0.3963650000077905,None,5,1.6301405999984127,5,2.4657865000044694,5,3.368637100007618,,,,,,,,,,,,,,,,,,,,,1,001,2025-09-04_16h52.06.478,TEST_eye_tracker,2024.1.5,None,2025-09-04 16h52.16.611728 +0200,
17,C:\Users\id05278\Desktop\MLLM matteo\Task and screenshots\experiment-20250603T085947Z-1-001\experiment\responses_files\prompt_17.xlsx,C:\Users\id05278\Desktop\MLLM matteo\Task and screenshots\experiment-20250603T085947Z-1-001\experiment\responses_files\img_prompt_17.jpg,What is the full name of the institute mentioned in the image?,,,0.888,,,0,11,11,16,,,,,,,,,,,,,,,,,,,,,,,,,,,,,,,,,What is the full name of the institute mentioned in the image?,0.888,,,,,,,,,,,,,,,,,,,,,,,,,,809.3185836000048,809.3348492000077,809.3348492000077,810.792437600001,810.792437600001,811.3615921000019,2,1.4072505999938585,space,0.5421131000039168,None,,,,,,,,,,1,001,2025-09-04_16h52.06.478,TEST_eye_tracker,2024.1.5,None,2025-09-04 16h52.16.611728 +0200,
11,C:\Users\id05278\Desktop\MLLM matteo\Task and screenshots\experiment-20250603T085947Z-1-001\experiment\responses_files\prompt_11.xlsx,C:\Users\id05278\Desktop\MLLM matteo\Task and screenshots\experiment-20250603T085947Z-1-001\experiment\responses_files\img_prompt_11.jpg,What color is the predominant airplane on display?,11,11.1,The predominant airplane on display is blue.,2,llava1.5-13b,0,12,12,10,0,0,0,0,818.0727538000065,,,,,,,,,,,,,,,,811.4255635000009,811.4349764000071,811.9262182000093,811.9262414000113,811.9610065000015,811.9610065000015,811.9610065000015,817.6280438000103,space,5.653484299997217,None,818.0629504000099,What color is the predominant airplane on display?,The predominant airplane on display is blue.,818.0727538000065,819.0596573000075,819.0596712000115,819.0924845000118,821.4265083000064,space,2.321805500003393,None,821.6209904999996,821.6598189000069,821.6598189000069,821.6598189000069,821.6598189000069,824.4593587999989,824.4593587999989,824.76539890001,space,0.29102610000700224,None,5,1.202256300006411,5,1.8378157999977702,5,2.7726173999981256,,,,,,,,,,,,,819.0924845000118,,,,,,,,1,001,2025-09-04_16h52.06.478,TEST_eye_tracker,2024.1.5,None,2025-09-04 16h52.16.611728 +0200,
11,C:\Users\id05278\Desktop\MLLM matteo\Task and screenshots\experiment-20250603T085947Z-1-001\experiment\responses_files\prompt_11.xlsx,C:\Users\id05278\Desktop\MLLM matteo\Task and screenshots\experiment-20250603T085947Z-1-001\experiment\responses_files\img_prompt_11.jpg,What color is the predominant airplane on display?,11,11.2,"The predominant airplane on display is blue, with additional stripes in red, white, and green.",3.333333333333333,gpt-4v,0,12,12,10,0,1,1,1,824.7925820000091,,,,,,,,,,,,,,,,,,,,,,,,,,,824.7659983000049,What color is the predominant airplane on display?,"The predominant airplane on display is blue, with additional stripes in red, white, and green.",824.7925820000091,825.7935276000062,825.7935399999988,825.8259653999994,830.6603318000125,space,4.820485700009158,None,830.8550830000022,830.8947863000067,830.8947863000067,830.8947863000067,830.8947863000067,833.2926299000101,833.2926299000101,833.5319883000047,space,0.2104927000036696,None,5,0.7013061000034213,5,1.4713781000027666,5,2.371838700011722,,,,,,,,,,,,,,,,,,,,,1,001,2025-09-04_16h52.06.478,TEST_eye_tracker,2024.1.5,None,2025-09-04 16h52.16.611728 +0200,
11,C:\Users\id05278\Desktop\MLLM matteo\Task and screenshots\experiment-20250603T085947Z-1-001\experiment\responses_files\prompt_11.xlsx,C:\Users\id05278\Desktop\MLLM matteo\Task and screenshots\experiment-20250603T085947Z-1-001\experiment\responses_files\img_prompt_11.jpg,What color is the predominant airplane on display?,,,0.888,,,0,12,12,10,,,,,,,,,,,,,,,,,,,,,,,,,,,,,,,,,What color is the predominant airplane on display?,0.888,,,,,,,,,,,,,,,,,,,,,,,,,,833.6175951000041,833.6339376000105,833.6339376000105,834.3925392000092,834.3925392000092,834.8949547000084,2,0.7084417000005487,space,0.48578550000092946,None,,,,,,,,,,1,001,2025-09-04_16h52.06.478,TEST_eye_tracker,2024.1.5,None,2025-09-04 16h52.16.611728 +0200,
6,C:\Users\id05278\Desktop\MLLM matteo\Task and screenshots\experiment-20250603T085947Z-1-001\experiment\responses_files\prompt_6.xlsx,C:\Users\id05278\Desktop\MLLM matteo\Task and screenshots\experiment-20250603T085947Z-1-001\experiment\responses_files\img_prompt_6.jpg,Did the artist include a chicken in this piece?,6,6.1,"No, the artist did not include a chicken in this piece. The image features two cows standing next to each other on a dirt road, with a man standing behind them. There are no chickens in the scene. The focus of the image is on the cows and the man, and it does not include any other animals.",5,LLaVA-RLHF-7b-v1.5-224,0,13,13,5,0,0,0,0,849.6465045000077,,,,,,,,,,,,,,,,834.9603095000057,834.9694521000056,835.4599629000004,835.4599790000066,835.4940604000003,835.4940604000003,835.4940604000003,849.1612329000054,space,13.648416800002451,None,849.6383085999987,Did the artist include a chicken in this piece?,"No, the artist did not include a chicken in this piece. The image features two cows standing next to each other on a dirt road, with a man standing behind them. There are no chickens in the scene. The focus of the image is on the cows and the man, and it does not include any other animals.",849.6465045000077,850.659756100009,850.659791099999,850.6926983000012,863.2938422000007,space,12.58531260000018,None,863.495146900008,863.5351909000019,863.5351909000019,863.5351909000019,863.5351909000019,868.9926161000039,868.9926161000039,869.2654072000005,space,0.2376211999944644,None,4,2.06091749999905,4,3.9966002000001026,5,5.4325320000061765,,,,,,,,,,,,835.4940604000003,,,,,,,,,1,001,2025-09-04_16h52.06.478,TEST_eye_tracker,2024.1.5,None,2025-09-04 16h52.16.611728 +0200,
6,C:\Users\id05278\Desktop\MLLM matteo\Task and screenshots\experiment-20250603T085947Z-1-001\experiment\responses_files\prompt_6.xlsx,C:\Users\id05278\Desktop\MLLM matteo\Task and screenshots\experiment-20250603T085947Z-1-001\experiment\responses_files\img_prompt_6.jpg,Did the artist include a chicken in this piece?,6,6.2,"No, there is no chicken in this image. The image shows a street scene with cows. There is a white cow with a bell around its neck looking directly at the camera, and another cow in front of it seen from behind. There are also people in the background, but no chickens are visible in the photograph.",4,gpt-4v,0,13,13,5,0,1,1,1,869.2928760000068,,,,,,,,,,,,,,,,,,,,,,,,,,,869.265974599999,Did the artist include a chicken in this piece?,"No, there is no chicken in this image. The image shows a street scene with cows. There is a white cow with a bell around its neck looking directly at the camera, and another cow in front of it seen from behind. There are also people in the background, but no chickens are visible in the photograph.",869.2928760000068,870.2926720000105,870.292685700013,870.3258779000025,883.0268746000074,space,12.680466999998316,None,883.2300975000107,883.2689623000042,883.2689623000042,883.2689623000042,883.2689623000042,886.7927321000025,886.7927321000025,888.998666200001,space,2.197513399994932,None,5,1.026751899989904,4,4.228943699999945,5,3.4971554999938235,,,,,,,,,,,,,,,,,,,,,1,001,2025-09-04_16h52.06.478,TEST_eye_tracker,2024.1.5,None,2025-09-04 16h52.16.611728 +0200,
6,C:\Users\id05278\Desktop\MLLM matteo\Task and screenshots\experiment-20250603T085947Z-1-001\experiment\responses_files\prompt_6.xlsx,C:\Users\id05278\Desktop\MLLM matteo\Task and screenshots\experiment-20250603T085947Z-1-001\experiment\responses_files\img_prompt_6.jpg,Did the artist include a chicken in this piece?,,,0.888,,,0,13,13,5,,,,,,,,,,,,,,,,,,,,,,,,,,,,,,,,,Did the artist include a chicken in this piece?,0.888,,,,,,,,,,,,,,,,,,,,,,,,,,889.0923728000053,889.1075527000066,889.1075527000066,890.8593308999989,890.8593308999989,891.3630887000036,2,1.7017444999946747,space,0.47634670000115875,None,,,,,,,,,,1,001,2025-09-04_16h52.06.478,TEST_eye_tracker,2024.1.5,None,2025-09-04 16h52.16.611728 +0200,
4,C:\Users\id05278\Desktop\MLLM matteo\Task and screenshots\experiment-20250603T085947Z-1-001\experiment\responses_files\prompt_4.xlsx,C:\Users\id05278\Desktop\MLLM matteo\Task and screenshots\experiment-20250603T085947Z-1-001\experiment\responses_files\img_prompt_4.jpg,Please provide an intricate breakdown of the image.,4,4.1,"The image is a compilation of four photos, each depicting a man performing a trick on a skateboard. The man is wearing a black shirt and jeans throughout the sequence. In the first photo, the man is at the top of a ramp, preparing to drop in and ride his skateboard down the ramp. The following three photos show him in mid-air, executing a trick that involves jumping over a ledge. The sequence captures the motion and excitement of the skateboarder's performance.",4,Qwen-VL-Chat,0,14,14,3,0,0,0,0,904.9611016000126,,,,,,,,,,,,,,,,891.4297114000074,891.4391486000095,891.9269073000032,891.9269215000095,891.9610268000106,891.9610268000106,891.9610268000106,904.4946544999984,space,12.501322199997958,None,904.9529602000111,Please provide an intricate breakdown of the image.,"The image is a compilation of four photos, each depicting a man performing a trick on a skateboard. The man is wearing a black shirt and jeans throughout the sequence. In the first photo, the man is at the top of a ramp, preparing to drop in and ride his skateboard down the ramp. The following three photos show him in mid-air, executing a trick that involves jumping over a ledge. The sequence captures the motion and excitement of the skateboarder's performance.",904.9611016000126,905.9592080000002,905.9592215000011,905.9928874000034,929.7936384000059,space,23.789422999994713,None,929.9969245000102,930.0374511000118,930.0374511000118,930.0374511000118,930.0374511000118,934.9927353000094,934.9927353000094,935.399009300003,space,0.38944220000121277,None,4,1.6265115999995032,4,3.4958090000000084,5,4.930962999991607,,,,,,,,,,,,891.9610268000106,,,,,,,,,1,001,2025-09-04_16h52.06.478,TEST_eye_tracker,2024.1.5,None,2025-09-04 16h52.16.611728 +0200,
4,C:\Users\id05278\Desktop\MLLM matteo\Task and screenshots\experiment-20250603T085947Z-1-001\experiment\responses_files\prompt_4.xlsx,C:\Users\id05278\Desktop\MLLM matteo\Task and screenshots\experiment-20250603T085947Z-1-001\experiment\responses_files\img_prompt_4.jpg,Please provide an intricate breakdown of the image.,4,4.2,"The image is a collage of six different shots featuring a skateboarder performing various tricks on a skateboard. The skateboarder is captured in different positions and stages of the tricks, showcasing their skills and the progression of the stunts. In each of the six shots, the skateboarder is wearing a black shirt, and the skateboard is visible in various positions throughout the collage. The skateboarder is captured in different stages of the tricks, from the initial approach to the peak of the stunt and the landing. The collage captures the essence of the skateboarder's performance and the excitement of the sport.",4.666666666666667,llava1.5-13b,0,14,14,3,0,1,1,1,935.4261724000098,,,,,,,,,,,,,,,,,,,,,,,,,,,935.3996094000031,Please provide an intricate breakdown of the image.,"The image is a collage of six different shots featuring a skateboarder performing various tricks on a skateboard. The skateboarder is captured in different positions and stages of the tricks, showcasing their skills and the progression of the stunts. In each of the six shots, the skateboarder is wearing a black shirt, and the skateboard is visible in various positions throughout the collage. The skateboarder is captured in different stages of the tricks, from the initial approach to the peak of the stunt and the landing. The collage captures the essence of the skateboarder's performance and the excitement of the sport.",935.4261724000098,936.426153700013,936.4261665000085,936.4596970999992,958.1275407000066,space,21.635246400008327,None,958.334245200007,958.3735517000023,958.3735517000023,958.3735517000023,958.3735517000023,963.0927537000098,963.0927537000098,963.3998646000109,space,0.2817060999950627,None,3,1.1218665999913355,4,2.5579878999997163,5,4.6925391999975545,,,,,,,,,,,,,,,,,,,,,1,001,2025-09-04_16h52.06.478,TEST_eye_tracker,2024.1.5,None,2025-09-04 16h52.16.611728 +0200,
4,C:\Users\id05278\Desktop\MLLM matteo\Task and screenshots\experiment-20250603T085947Z-1-001\experiment\responses_files\prompt_4.xlsx,C:\Users\id05278\Desktop\MLLM matteo\Task and screenshots\experiment-20250603T085947Z-1-001\experiment\responses_files\img_prompt_4.jpg,Please provide an intricate breakdown of the image.,,,0.888,,,0,14,14,3,,,,,,,,,,,,,,,,,,,,,,,,,,,,,,,,,Please provide an intricate breakdown of the image.,0.888,,,,,,,,,,,,,,,,,,,,,,,,,,963.4955098000064,963.5102583000116,963.5102583000116,964.7933209000039,964.7933209000039,965.1283564000041,1,1.2315634999977192,space,0.3263477000000421,None,,,,,,,,,,1,001,2025-09-04_16h52.06.478,TEST_eye_tracker,2024.1.5,None,2025-09-04 16h52.16.611728 +0200,
24,C:\Users\id05278\Desktop\MLLM matteo\Task and screenshots\experiment-20250603T085947Z-1-001\experiment\responses_files\prompt_24.xlsx,C:\Users\id05278\Desktop\MLLM matteo\Task and screenshots\experiment-20250603T085947Z-1-001\experiment\responses_files\img_prompt_24.jpg,What's happening in the scene?,24,24.2,"The image depicts a man and a woman sitting on a couch in a living room. They are facing each other and appear to be engaged in a conversation or watching something together. The couch is positioned in the center of the room, with a dining table and a kitchen area visible in the background. There are several objects scattered around the room, including a TV, a laptop, a cell phone, and a few bottles. A refrigerator can be seen in the kitchen area, and a microwave is also present. The living room is furnished with a chair and a potted plant, adding a touch of greenery to the space.",3,LLaVA-RLHF-7b-v1.5-224,0,15,15,23,0,0,0,1,985.5341632000054,,,,,,,,,,,,,,,,965.199420600009,965.2086915000109,965.6934576000058,965.6934776000126,965.727710200008,965.727710200008,965.727710200008,985.0615461000125,space,19.318931999994675,None,985.5247993000085,What's happening in the scene?,"The image depicts a man and a woman sitting on a couch in a living room. They are facing each other and appear to be engaged in a conversation or watching something together. The couch is positioned in the center of the room, with a dining table and a kitchen area visible in the background. There are several objects scattered around the room, including a TV, a laptop, a cell phone, and a few bottles. A refrigerator can be seen in the kitchen area, and a microwave is also present. The living room is furnished with a chair and a potted plant, adding a touch of greenery to the space.",985.5341632000054,986.526131400009,986.5261436000001,986.5598255000077,1021.5937171000114,space,35.02268969999568,None,1021.8010049000004,1021.8401421000017,1021.8401421000017,1021.8401421000017,1021.8401421000017,1027.9928840000066,1027.9928840000066,1028.7654968999996,space,0.7576884000009159,None,5,2.3891419999999925,5,5.157478000008268,5,6.131314400001429,,,,,,,,,,,,965.727710200008,,,,,,,,,1,001,2025-09-04_16h52.06.478,TEST_eye_tracker,2024.1.5,None,2025-09-04 16h52.16.611728 +0200,
24,C:\Users\id05278\Desktop\MLLM matteo\Task and screenshots\experiment-20250603T085947Z-1-001\experiment\responses_files\prompt_24.xlsx,C:\Users\id05278\Desktop\MLLM matteo\Task and screenshots\experiment-20250603T085947Z-1-001\experiment\responses_files\img_prompt_24.jpg,What's happening in the scene?,24,24.1,"In this scene, there is a person reclining on a couch in what appears to be a living room with the lights dimmed. They seem relaxed, possibly watching TV or looking at a mobile device. The individual has one leg crossed over the other and is holding a small dog in their lap, suggesting a moment of rest and companionship. The room is cluttered, with various items strewn about, including on the kitchen counter and the coffee table. This setting gives the impression of a casual, lived-in space where someone is unwinding after a day's activities. The overall atmosphere is one of domestic life and informality.",1,gpt-4v,0,15,15,23,0,1,1,0,1028.7930492000014,,,,,,,,,,,,,,,,,,,,,,,,,,,1028.7660555000039,What's happening in the scene?,"In this scene, there is a person reclining on a couch in what appears to be a living room with the lights dimmed. They seem relaxed, possibly watching TV or looking at a mobile device. The individual has one leg crossed over the other and is holding a small dog in their lap, suggesting a moment of rest and companionship. The room is cluttered, with various items strewn about, including on the kitchen counter and the coffee table. This setting gives the impression of a casual, lived-in space where someone is unwinding after a day's activities. The overall atmosphere is one of domestic life and informality.",1028.7930492000014,1029.7935272000032,1029.7935387000034,1029.8264841000055,1055.8952318000083,space,26.0355750000017,None,1056.1064503000089,1056.1454357000039,1056.1454357000039,1056.1454357000039,1056.1454357000039,1060.0597019000124,1060.0597019000124,1060.2017584999994,space,0.12289859999145847,None,3,1.1836031000129879,4,2.3188915999926394,5,3.8883040999935474,,,,,,,,,,,,,,,,,,,,,1,001,2025-09-04_16h52.06.478,TEST_eye_tracker,2024.1.5,None,2025-09-04 16h52.16.611728 +0200,
24,C:\Users\id05278\Desktop\MLLM matteo\Task and screenshots\experiment-20250603T085947Z-1-001\experiment\responses_files\prompt_24.xlsx,C:\Users\id05278\Desktop\MLLM matteo\Task and screenshots\experiment-20250603T085947Z-1-001\experiment\responses_files\img_prompt_24.jpg,What's happening in the scene?,,,0.888,,,0,15,15,23,,,,,,,,,,,,,,,,,,,,,,,,,,,,,,,,,What's happening in the scene?,0.888,,,,,,,,,,,,,,,,,,,,,,,,,,1060.3031210000045,1060.3178625,1060.3178625,1062.0603384999995,1062.0603384999995,1062.3618363999994,1,1.690298099987558,space,0.28942279999319,None,,,,,,,,,,1,001,2025-09-04_16h52.06.478,TEST_eye_tracker,2024.1.5,None,2025-09-04 16h52.16.611728 +0200,
9,C:\Users\id05278\Desktop\MLLM matteo\Task and screenshots\experiment-20250603T085947Z-1-001\experiment\responses_files\prompt_9.xlsx,C:\Users\id05278\Desktop\MLLM matteo\Task and screenshots\experiment-20250603T085947Z-1-001\experiment\responses_files\img_prompt_9.jpg,Describe the overall appearance and atmosphere of the bedroom in the image.,9,9.1,"The bedroom in the image has a modern and stylish appearance, featuring a large bed with white pillows and a white comforter. The room is dimly lit, creating a cozy and intimate atmosphere. The bed is positioned next to a wall, and there is a lamp on the nightstand, providing additional lighting in the room. The overall ambiance of the bedroom is inviting and comfortable, making it an ideal space for relaxation and rest.",2,llava1.5-13b,0,16,16,8,0,0,0,0,1070.7464149000007,,,,,,,,,,,,,,,,1062.4315953000041,1062.442056400003,1062.9266951000027,1062.9267120000004,1062.9614261000097,1062.9614261000097,1062.9614261000097,1070.2950286999985,space,7.32545439999376,None,1070.7379034000041,Describe the overall appearance and atmosphere of the bedroom in the image.,"The bedroom in the image has a modern and stylish appearance, featuring a large bed with white pillows and a white comforter. The room is dimly lit, creating a cozy and intimate atmosphere. The bed is positioned next to a wall, and there is a lamp on the nightstand, providing additional lighting in the room. The overall ambiance of the bedroom is inviting and comfortable, making it an ideal space for relaxation and rest.",1070.7464149000007,1071.760691100004,1071.760729200003,1071.7932217000052,1095.7272745000082,space,23.917442699996172,None,1095.9314825000038,1095.972299000001,1095.972299000001,1095.972299000001,1095.972299000001,1102.2935168000113,1102.2935168000113,1102.5657503000111,space,0.2570893999945838,None,4,4.391870699997526,4,5.3947543999966,5,6.296154900002875,,,,,,,,,,,,1062.9614261000097,,,,,,,,,1,001,2025-09-04_16h52.06.478,TEST_eye_tracker,2024.1.5,None,2025-09-04 16h52.16.611728 +0200,
9,C:\Users\id05278\Desktop\MLLM matteo\Task and screenshots\experiment-20250603T085947Z-1-001\experiment\responses_files\prompt_9.xlsx,C:\Users\id05278\Desktop\MLLM matteo\Task and screenshots\experiment-20250603T085947Z-1-001\experiment\responses_files\img_prompt_9.jpg,Describe the overall appearance and atmosphere of the bedroom in the image.,9,9.2,"The bedroom in the image has a clean and minimalist appearance, featuring a large bed with white sheets and pillows, which gives it a fresh and inviting look. The room is well-lit, with a light on, creating a cozy atmosphere. The overall atmosphere of the bedroom is calm and relaxing, making it an ideal space for rest and rejuvenation.",4.333333333333333,Qwen-VL-Chat,0,16,16,8,0,1,1,1,1102.5930686000065,,,,,,,,,,,,,,,,,,,,,,,,,,,1102.566328300003,Describe the overall appearance and atmosphere of the bedroom in the image.,"The bedroom in the image has a clean and minimalist appearance, featuring a large bed with white sheets and pillows, which gives it a fresh and inviting look. The room is well-lit, with a light on, creating a cozy atmosphere. The overall atmosphere of the bedroom is calm and relaxing, making it an ideal space for rest and rejuvenation.",1102.5930686000065,1103.5930271000107,1103.5930417000054,1103.6264355000021,1117.727340100013,space,14.067427000001771,None,1117.929692900012,1117.9694983000081,1117.9694983000081,1117.9694983000081,1117.9694983000081,1120.926886900008,1120.926886900008,1121.2322446000035,space,0.27122890000464395,None,4,1.5608742000040365,4,2.1977198000095086,5,2.934559100001934,,,,,,,,,,,,,,,,,,,,,1,001,2025-09-04_16h52.06.478,TEST_eye_tracker,2024.1.5,None,2025-09-04 16h52.16.611728 +0200,
9,C:\Users\id05278\Desktop\MLLM matteo\Task and screenshots\experiment-20250603T085947Z-1-001\experiment\responses_files\prompt_9.xlsx,C:\Users\id05278\Desktop\MLLM matteo\Task and screenshots\experiment-20250603T085947Z-1-001\experiment\responses_files\img_prompt_9.jpg,Describe the overall appearance and atmosphere of the bedroom in the image.,,,0.888,,,0,16,16,8,,,,,,,,,,,,,,,,,,,,,,,,,,,,,,,,,Describe the overall appearance and atmosphere of the bedroom in the image.,0.888,,,,,,,,,,,,,,,,,,,,,,,,,,1121.3395424000046,1121.355603300006,1121.355603300006,1122.2929651000013,1122.2929651000013,1122.7623343000014,1,0.8873094000009587,space,0.4504573000012897,None,,,,,,,,,,1,001,2025-09-04_16h52.06.478,TEST_eye_tracker,2024.1.5,None,2025-09-04 16h52.16.611728 +0200,
3,C:\Users\id05278\Desktop\MLLM matteo\Task and screenshots\experiment-20250603T085947Z-1-001\experiment\responses_files\prompt_3.xlsx,C:\Users\id05278\Desktop\MLLM matteo\Task and screenshots\experiment-20250603T085947Z-1-001\experiment\responses_files\img_prompt_3.jpg,What is the quote on the image suggesting?,3,3.2,"The quote on the image, "Peace, Poetry, and Power," suggests that the person who created the image values peace, poetry, and power in their life. It could be a personal mantra or a statement expressing their beliefs and aspirations.",2.666666666666667,Qwen-VL-Chat,0,17,17,2,0,0,0,1,1154.9129097000114,,,,,,,,,,,,,,,,1122.831061200006,1122.8413673000032,1123.3268849000015,1123.3269011000084,1123.3615482000023,1123.3615482000023,1123.3615482000023,1154.6290768000035,space,31.237655200005975,None,1154.9047829000046,What is the quote on the image suggesting?,"The quote on the image, "Peace, Poetry, and Power," suggests that the person who created the image values peace, poetry, and power in their life. It could be a personal mantra or a statement expressing their beliefs and aspirations.",1154.9129097000114,1155.9264949000062,1155.9265079000033,1155.960826800001,1166.0957175000076,space,10.125157500006026,None,1166.2964419000054,1166.3349702000123,1166.3349702000123,1166.3349702000123,1166.3349702000123,1173.3930189000093,1173.3930189000093,1173.7992150000064,space,0.3729361000005156,None,4,1.8271846000134246,3,4.762942300003488,5,7.031282700001611,,,,,,,,,,,,1123.3615482000023,,,,,,,,,1,001,2025-09-04_16h52.06.478,TEST_eye_tracker,2024.1.5,None,2025-09-04 16h52.16.611728 +0200,
3,C:\Users\id05278\Desktop\MLLM matteo\Task and screenshots\experiment-20250603T085947Z-1-001\experiment\responses_files\prompt_3.xlsx,C:\Users\id05278\Desktop\MLLM matteo\Task and screenshots\experiment-20250603T085947Z-1-001\experiment\responses_files\img_prompt_3.jpg,What is the quote on the image suggesting?,3,3.1,"The quote on the image suggests that peace, poetry, and power are important aspects of life. It encourages people to appreciate these qualities and strive to incorporate them into their daily lives. The image features a clock with a rose and a quote, which can be interpreted as a reminder to find balance between the passage of time and the beauty of life. The rose symbolizes love and appreciation, while the clock represents the importance of time and its value in our lives. The combination of these elements in the image serves as a reminder to cherish the moments and make the most of our time on earth.",5,llava1.5-13b,0,17,17,2,0,1,1,0,1173.826458200012,,,,,,,,,,,,,,,,,,,,,,,,,,,1173.7997434999997,What is the quote on the image suggesting?,"The quote on the image suggests that peace, poetry, and power are important aspects of life. It encourages people to appreciate these qualities and strive to incorporate them into their daily lives. The image features a clock with a rose and a quote, which can be interpreted as a reminder to find balance between the passage of time and the beauty of life. The rose symbolizes love and appreciation, while the clock represents the importance of time and its value in our lives. The combination of these elements in the image serves as a reminder to cherish the moments and make the most of our time on earth.",1173.826458200012,1174.8266040000017,1174.8266188999987,1174.8598101000098,1197.362862000009,space,22.474282299997867,None,1197.576562000002,1197.6180394000112,1197.6180394000112,1197.6180394000112,1197.6180394000112,1201.4268024000048,1201.4268024000048,1201.7663439000025,space,0.30702920000476297,None,5,1.4127045999921393,5,2.2486034000030486,5,3.783850599997095,,,,,,,,,,,,,,,,,,,,,1,001,2025-09-04_16h52.06.478,TEST_eye_tracker,2024.1.5,None,2025-09-04 16h52.16.611728 +0200,
3,C:\Users\id05278\Desktop\MLLM matteo\Task and screenshots\experiment-20250603T085947Z-1-001\experiment\responses_files\prompt_3.xlsx,C:\Users\id05278\Desktop\MLLM matteo\Task and screenshots\experiment-20250603T085947Z-1-001\experiment\responses_files\img_prompt_3.jpg,What is the quote on the image suggesting?,,,0.888,,,0,17,17,2,,,,,,,,,,,,,,,,,,,,,,,,,,,,,,,,,What is the quote on the image suggesting?,0.888,,,,,,,,,,,,,,,,,,,,,,,,,,1201.8727866000118,1201.887913700004,1201.887913700004,1202.9935587000073,1202.9935587000073,1203.3286818000051,2,1.0533606999961194,space,0.3085141999908956,None,,,,,,,,,,1,001,2025-09-04_16h52.06.478,TEST_eye_tracker,2024.1.5,None,2025-09-04 16h52.16.611728 +0200,
8,C:\Users\id05278\Desktop\MLLM matteo\Task and screenshots\experiment-20250603T085947Z-1-001\experiment\responses_files\prompt_8.xlsx,C:\Users\id05278\Desktop\MLLM matteo\Task and screenshots\experiment-20250603T085947Z-1-001\experiment\responses_files\img_prompt_8.jpg,What are the prominent objects in the image?,8,8.1,"The prominent objects in the image are a train and a train station. The train is traveling down the tracks, and the train station is situated next to the tracks.",2,LLaVA-RLHF-7b-v1.5-224,0,18,18,7,0,0,0,0,1211.5451309000055,,,,,,,,,,,,,,,,1203.3979363000108,1203.4081248000002,1203.893768599999,1203.8937877999997,1203.9283623000083,1203.9283623000083,1203.9283623000083,1211.162605400008,space,7.222671600000467,None,1211.5366581999988,What are the prominent objects in the image?,"The prominent objects in the image are a train and a train station. The train is traveling down the tracks, and the train station is situated next to the tracks.",1211.5451309000055,1212.5598502000066,1212.5598619000084,1212.593225900011,1219.7938913000107,space,7.197355500000413,None,1219.9917223000084,1220.030978300012,1220.030978300012,1220.030978300012,1220.030978300012,1224.826499600007,1224.826499600007,1225.0331826000038,space,0.1881924000044819,None,4,1.5984640999959083,4,3.4342463000066346,5,4.769745400000829,,,,,,,,,,,,1203.9283623000083,,,,,,,,,1,001,2025-09-04_16h52.06.478,TEST_eye_tracker,2024.1.5,None,2025-09-04 16h52.16.611728 +0200,
8,C:\Users\id05278\Desktop\MLLM matteo\Task and screenshots\experiment-20250603T085947Z-1-001\experiment\responses_files\prompt_8.xlsx,C:\Users\id05278\Desktop\MLLM matteo\Task and screenshots\experiment-20250603T085947Z-1-001\experiment\responses_files\img_prompt_8.jpg,What are the prominent objects in the image?,8,8.2,"The prominent objects in the image include a train, a station platform, and a train station.",4,fuyu-8b,0,18,18,7,0,1,1,1,1225.0597907000047,,,,,,,,,,,,,,,,,,,,,,,,,,,1225.0337505000061,What are the prominent objects in the image?,"The prominent objects in the image include a train, a station platform, and a train station.",1225.0597907000047,1226.0601365000039,1226.0601516000024,1226.0933099000104,1231.0942784000072,space,4.986240099999122,None,1231.2898657000042,1231.329690700004,1231.329690700004,1231.329690700004,1231.329690700004,1234.826720500001,1234.826720500001,1234.9987574000115,space,0.15519469999708235,None,4,1.3996962000092026,4,2.1015288999915356,5,3.471056399997906,,,,,,,,,,,,,,,,,,,,,1,001,2025-09-04_16h52.06.478,TEST_eye_tracker,2024.1.5,None,2025-09-04 16h52.16.611728 +0200,
8,C:\Users\id05278\Desktop\MLLM matteo\Task and screenshots\experiment-20250603T085947Z-1-001\experiment\responses_files\prompt_8.xlsx,C:\Users\id05278\Desktop\MLLM matteo\Task and screenshots\experiment-20250603T085947Z-1-001\experiment\responses_files\img_prompt_8.jpg,What are the prominent objects in the image?,,,0.888,,,0,18,18,7,,,,,,,,,,,,,,,,,,,,,,,,,,,,,,,,,What are the prominent objects in the image?,0.888,,,,,,,,,,,,,,,,,,,,,,,,,,1235.1122062000068,1235.1271768000006,1235.1271768000006,1237.0266230999987,1237.0266230999987,1237.3624379000103,1,1.847497900002054,space,0.3157251000084216,None,,,,,,,,,,1,001,2025-09-04_16h52.06.478,TEST_eye_tracker,2024.1.5,None,2025-09-04 16h52.16.611728 +0200,
7,C:\Users\id05278\Desktop\MLLM matteo\Task and screenshots\experiment-20250603T085947Z-1-001\experiment\responses_files\prompt_7.xlsx,C:\Users\id05278\Desktop\MLLM matteo\Task and screenshots\experiment-20250603T085947Z-1-001\experiment\responses_files\img_prompt_7.jpg,Who has written the quote in the image?,7,7.1,Jignesh Jain,5,fuyu-8b,0,19,19,6,0,0,0,0,1247.9102477000124,,,,,,,,,,,,,,,,1237.4285681000038,1237.4384434000094,1237.927018900009,1237.927033,1237.9609463000088,1237.9609463000088,1237.9609463000088,1247.6291215000092,space,9.661230400000932,None,1247.9016297000053,Who has written the quote in the image?,Jignesh Jain,1247.9102477000124,1248.8937969000108,1248.893813600007,1248.926348500012,1251.560718000008,space,2.6321633999905316,None,1251.7529512000037,1251.7920757000102,1251.7920757000102,1251.7920757000102,1251.7920757000102,1255.126610700012,1255.126610700012,1255.499229500012,space,0.33610900001076516,None,5,1.1377032000018517,4,2.4731448000093224,5,3.3091061000013724,,,,,,,,,,,,1237.9609463000088,1248.926348500012,,,,,,,,1,001,2025-09-04_16h52.06.478,TEST_eye_tracker,2024.1.5,None,2025-09-04 16h52.16.611728 +0200,
7,C:\Users\id05278\Desktop\MLLM matteo\Task and screenshots\experiment-20250603T085947Z-1-001\experiment\responses_files\prompt_7.xlsx,C:\Users\id05278\Desktop\MLLM matteo\Task and screenshots\experiment-20250603T085947Z-1-001\experiment\responses_files\img_prompt_7.jpg,Who has written the quote in the image?,7,7.2,"The image shows two people holding hands, one person's hand on top of another. They are smiling and seem to be at peace with each other. This is a beautiful moment that depicts love between two individuals who have been together for some time or even forever.",2.333333333333333,VisualGLM-6b,0,19,19,6,0,1,1,1,1255.5264285000012,,,,,,,,,,,,,,,,,,,,,,,,,,,1255.4997583000077,Who has written the quote in the image?,"The image shows two people holding hands, one person's hand on top of another. They are smiling and seem to be at peace with each other. This is a beautiful moment that depicts love between two individuals who have been together for some time or even forever.",1255.5264285000012,1256.5264970999997,1256.5265097000083,1256.5600632999995,1262.9609542000107,space,6.3901957999914885,None,1263.1621667,1263.2006943000015,1263.2006943000015,1263.2006943000015,1263.2006943000015,1267.6932929000031,1267.6932929000031,1267.865606700012,space,0.15406190000067,None,1,1.661195199994836,2,3.597190300002694,5,4.465814000010141,,,,,,,,,,,,,,,,,,,,,1,001,2025-09-04_16h52.06.478,TEST_eye_tracker,2024.1.5,None,2025-09-04 16h52.16.611728 +0200,
7,C:\Users\id05278\Desktop\MLLM matteo\Task and screenshots\experiment-20250603T085947Z-1-001\experiment\responses_files\prompt_7.xlsx,C:\Users\id05278\Desktop\MLLM matteo\Task and screenshots\experiment-20250603T085947Z-1-001\experiment\responses_files\img_prompt_7.jpg,Who has written the quote in the image?,,,0.888,,,0,19,19,6,,,,,,,,,,,,,,,,,,,,,,,,,,,,,,,,,Who has written the quote in the image?,0.888,,,,,,,,,,,,,,,,,,,,,,,,,,1267.9802800000034,1267.9977033000032,1267.9977033000032,1270.9598690999992,1270.9598690999992,1271.4621928999986,1,2.912070099991979,space,0.4865524000051664,None,,,,,,,,,,1,001,2025-09-04_16h52.06.478,TEST_eye_tracker,2024.1.5,None,2025-09-04 16h52.16.611728 +0200,
16,C:\Users\id05278\Desktop\MLLM matteo\Task and screenshots\experiment-20250603T085947Z-1-001\experiment\responses_files\prompt_16.xlsx,C:\Users\id05278\Desktop\MLLM matteo\Task and screenshots\experiment-20250603T085947Z-1-001\experiment\responses_files\img_prompt_16.jpg,What is the quote written in the image?,16,16.1,The quote written in the image is: "forgive yourself for not knowing what you didn't know before you lived through it.",5,LLaVA-RLHF-7b-v1.5-224,0,20,20,15,0,0,0,0,1281.7541289000073,,,,,,,,,,,,,,,,1271.5316171000013,1271.5408331000071,1272.0277858000045,1272.0278207000083,1272.0611701000016,1272.0611701000016,1272.0611701000016,1281.330428900008,space,9.265126400001463,None,1281.7459633000108,What is the quote written in the image?,The quote written in the image is: "forgive yourself for not knowing what you didn't know before you lived through it.",1281.7541289000073,1282.7600087000028,1282.7600190000085,1282.7932141000056,1289.3274882000114,space,6.509436799999094,None,1289.5243047000113,1289.5631502000033,1289.5631502000033,1289.5631502000033,1289.5631502000033,1292.9598307000124,1292.9598307000124,1293.1992624000122,space,0.20670889999018982,None,4,1.3332044000126189,4,2.6014208999986295,5,3.369599900004687,,,,,,,,,,,,1272.0611701000016,,,,,,,,,1,001,2025-09-04_16h52.06.478,TEST_eye_tracker,2024.1.5,None,2025-09-04 16h52.16.611728 +0200,
16,C:\Users\id05278\Desktop\MLLM matteo\Task and screenshots\experiment-20250603T085947Z-1-001\experiment\responses_files\prompt_16.xlsx,C:\Users\id05278\Desktop\MLLM matteo\Task and screenshots\experiment-20250603T085947Z-1-001\experiment\responses_files\img_prompt_16.jpg,What is the quote written in the image?,16,16.2,"The quote in the image reads: "Forgive yourself for not knowing what you didn't know before you lived through it. Honor your path. Trust your journey. Learn, grow, evolve, become." It is attributed to someone named Cinda Crawford.",3,gpt-4v,0,20,20,15,0,1,1,1,1293.2266175000113,,,,,,,,,,,,,,,,,,,,,,,,,,,1293.199820400012,What is the quote written in the image?,"The quote in the image reads: "Forgive yourself for not knowing what you didn't know before you lived through it. Honor your path. Trust your journey. Learn, grow, evolve, become." It is attributed to someone named Cinda Crawford.",1293.2266175000113,1294.2266597999987,1294.2266719000036,1294.2599986999994,1301.8276267000037,space,7.5623745000048075,None,1302.0269375000062,1302.0656931000121,1302.0656931000121,1302.0656931000121,1302.0656931000121,1305.260001200004,1305.260001200004,1305.5325434000115,space,0.2503378999972483,None,5,1.096947000012733,5,2.465382000009413,5,3.167625300004147,,,,,,,,,,,,,,,,,,,,,1,001,2025-09-04_16h52.06.478,TEST_eye_tracker,2024.1.5,None,2025-09-04 16h52.16.611728 +0200,
16,C:\Users\id05278\Desktop\MLLM matteo\Task and screenshots\experiment-20250603T085947Z-1-001\experiment\responses_files\prompt_16.xlsx,C:\Users\id05278\Desktop\MLLM matteo\Task and screenshots\experiment-20250603T085947Z-1-001\experiment\responses_files\img_prompt_16.jpg,What is the quote written in the image?,,,0.888,,,0,20,20,15,,,,,,,,,,,,,,,,,,,,,,,,,,,,,,,,,What is the quote written in the image?,0.888,,,,,,,,,,,,,,,,,,,,,,,,,,1305.6531608000078,1305.6683964000113,1305.6683964000113,1306.8600352000067,1306.8600352000067,1307.3956411000108,2,1.1397202000080142,space,0.5154998000070918,None,,,,,,,,,,1,001,2025-09-04_16h52.06.478,TEST_eye_tracker,2024.1.5,None,2025-09-04 16h52.16.611728 +0200,
19,C:\Users\id05278\Desktop\MLLM matteo\Task and screenshots\experiment-20250603T085947Z-1-001\experiment\responses_files\prompt_19.xlsx,C:\Users\id05278\Desktop\MLLM matteo\Task and screenshots\experiment-20250603T085947Z-1-001\experiment\responses_files\img_prompt_19.jpg,What is the man doing in the image?,19,19.2,The man in the image is riding skis down a snow-covered slope while holding an ax in his hand.,2.333333333333333,Qwen-VL-Chat,0,21,21,18,0,0,0,1,1317.2874254000053,,,,,,,,,,,,,,,,1307.4629961000028,1307.4722095000034,1307.9605080000038,1307.9605225999985,1307.9951150999987,1307.9951150999987,1307.9951150999987,1316.8287989000091,space,8.812596600007964,None,1317.2788607000111,What is the man doing in the image?,The man in the image is riding skis down a snow-covered slope while holding an ax in his hand.,1317.2874254000053,1318.2933742000023,1318.2933880000055,1318.3266594000015,1325.0622779000114,space,6.703699100005906,None,1325.2627020000073,1325.3027547000092,1325.3027547000092,1325.3027547000092,1325.3027547000092,1331.7932834000094,1331.7932834000094,1332.69979720001,space,0.8769440000032773,None,5,1.194199399993522,4,4.663442300006864,3,6.468769599989173,,,,,,,,,,,,1307.9951150999987,,,,,,,,,1,001,2025-09-04_16h52.06.478,TEST_eye_tracker,2024.1.5,None,2025-09-04 16h52.16.611728 +0200,
19,C:\Users\id05278\Desktop\MLLM matteo\Task and screenshots\experiment-20250603T085947Z-1-001\experiment\responses_files\prompt_19.xlsx,C:\Users\id05278\Desktop\MLLM matteo\Task and screenshots\experiment-20250603T085947Z-1-001\experiment\responses_files\img_prompt_19.jpg,What is the man doing in the image?,19,19.1,"The man in the image is snowboarding down a snow-covered slope, holding a large red axe or a long stick. He is wearing a plaid shirt and appears to be enjoying his time on the snowy hill. It is not common for snowboarders to carry a large axe or stick while snowboarding, so this unusual combination of snowboarding and carrying a large tool might be a unique aspect of this particular scene. It could be that the man is participating in some kind of special event or demonstration, or perhaps he is using the large red axe for a specific purpose, such as clearing snow or providing some kind of assistance during his snowboarding adventure.",3,LLaVA-RLHF-7b-v1.5-224,0,21,21,18,0,1,1,0,1332.7266122,,,,,,,,,,,,,,,,,,,,,,,,,,,1332.7003474000085,What is the man doing in the image?,"The man in the image is snowboarding down a snow-covered slope, holding a large red axe or a long stick. He is wearing a plaid shirt and appears to be enjoying his time on the snowy hill. It is not common for snowboarders to carry a large axe or stick while snowboarding, so this unusual combination of snowboarding and carrying a large tool might be a unique aspect of this particular scene. It could be that the man is participating in some kind of special event or demonstration, or perhaps he is using the large red axe for a specific purpose, such as clearing snow or providing some kind of assistance during his snowboarding adventure.",1332.7266122,1333.7269292000128,1333.7269589000061,1333.760334999999,1368.0612907000032,space,34.285980200002086,None,1368.2714534000115,1368.3108292000106,1368.3108292000106,1368.3108292000106,1368.3108292000106,1372.7268244000006,1372.7268244000006,1373.6661244999996,space,0.9197018999984721,None,5,1.6192633000027854,5,3.521322799992049,3,5.0240875000017695,,,,,,,,,,,,,,,,,,,,,1,001,2025-09-04_16h52.06.478,TEST_eye_tracker,2024.1.5,None,2025-09-04 16h52.16.611728 +0200,
19,C:\Users\id05278\Desktop\MLLM matteo\Task and screenshots\experiment-20250603T085947Z-1-001\experiment\responses_files\prompt_19.xlsx,C:\Users\id05278\Desktop\MLLM matteo\Task and screenshots\experiment-20250603T085947Z-1-001\experiment\responses_files\img_prompt_19.jpg,What is the man doing in the image?,,,0.888,,,0,21,21,18,,,,,,,,,,,,,,,,,,,,,,,,,,,,,,,,,What is the man doing in the image?,0.888,,,,,,,,,,,,,,,,,,,,,,,,,,1373.7895651,1373.8045268999995,1373.8045268999995,1375.360226100005,1375.360226100005,1375.6292594000115,2,1.503509699992719,space,0.25388220000604633,None,,,,,,,,,,1,001,2025-09-04_16h52.06.478,TEST_eye_tracker,2024.1.5,None,2025-09-04 16h52.16.611728 +0200,
22,C:\Users\id05278\Desktop\MLLM matteo\Task and screenshots\experiment-20250603T085947Z-1-001\experiment\responses_files\prompt_22.xlsx,C:\Users\id05278\Desktop\MLLM matteo\Task and screenshots\experiment-20250603T085947Z-1-001\experiment\responses_files\img_prompt_22.jpg,What is the website mentioned in the image?,22,22.1,"The website mentioned in the image is "Google". It appears to be a search engine, and it has an interesting photo of a girl standing next to a flower with a blue sky behind her. There are also words written on the page that mention Google as well.",2,VisualGLM-6b,0,22,22,21,0,0,0,0,1385.0704613999987,,,,,,,,,,,,,,,,1375.7005909,1375.7101552000095,1376.1938491000037,1376.1938634000107,1376.2287853000016,1376.2287853000016,1376.2287853000016,1384.6290110000118,space,8.369610099995043,None,1385.0620924000104,What is the website mentioned in the image?,"The website mentioned in the image is "Google". It appears to be a search engine, and it has an interesting photo of a girl standing next to a flower with a blue sky behind her. There are also words written on the page that mention Google as well.",1385.0704613999987,1386.0605807000102,1386.060607700012,1386.0935671000043,1394.9944550000073,space,8.889049200006411,None,1395.2054804000072,1395.2456238000013,1395.2456238000013,1395.2456238000013,1395.2456238000013,1400.3600423000025,1400.3600423000025,1400.499370000005,space,0.10995190001267474,None,1,1.2847703000006732,1,2.386694600005285,5,5.090044000011403,,,,,,,,,,,,1376.2287853000016,,,,,,,,,1,001,2025-09-04_16h52.06.478,TEST_eye_tracker,2024.1.5,None,2025-09-04 16h52.16.611728 +0200,
22,C:\Users\id05278\Desktop\MLLM matteo\Task and screenshots\experiment-20250603T085947Z-1-001\experiment\responses_files\prompt_22.xlsx,C:\Users\id05278\Desktop\MLLM matteo\Task and screenshots\experiment-20250603T085947Z-1-001\experiment\responses_files\img_prompt_22.jpg,What is the website mentioned in the image?,22,22.2,The website mentioned in the image is www.tamilkavithaial.com.,4.333333333333333,Qwen-VL-Chat,0,22,22,21,0,1,1,1,1400.526706900011,,,,,,,,,,,,,,,,,,,,,,,,,,,1400.5000065000058,What is the website mentioned in the image?,The website mentioned in the image is www.tamilkavithaial.com.,1400.526706900011,1401.5267143000092,1401.5267271000048,1401.5600445000018,1404.0611227000045,space,2.4864230999955907,None,1404.2595792000066,1404.2983996000112,1404.2983996000112,1404.2983996000112,1404.2983996000112,1407.2600964000012,1407.2600964000012,1407.4995449999988,space,0.20269310000003316,None,5,1.2307137999887345,5,2.2331886000029044,5,2.9343291000113823,,,,,,,,,,,,,,,,,,,,,1,001,2025-09-04_16h52.06.478,TEST_eye_tracker,2024.1.5,None,2025-09-04 16h52.16.611728 +0200,
22,C:\Users\id05278\Desktop\MLLM matteo\Task and screenshots\experiment-20250603T085947Z-1-001\experiment\responses_files\prompt_22.xlsx,C:\Users\id05278\Desktop\MLLM matteo\Task and screenshots\experiment-20250603T085947Z-1-001\experiment\responses_files\img_prompt_22.jpg,What is the website mentioned in the image?,,,0.888,,,0,22,22,21,,,,,,,,,,,,,,,,,,,,,,,,,,,,,,,,,What is the website mentioned in the image?,0.888,,,,,,,,,,,,,,,,,,,,,,,,,,1407.6257659000112,1407.6415381000115,1407.6415381000115,1408.9602890000097,1408.9602890000097,1409.1962141000113,2,1.2677486999891698,space,0.22291219999897294,None,,,,,,,,,,1,001,2025-09-04_16h52.06.478,TEST_eye_tracker,2024.1.5,None,2025-09-04 16h52.16.611728 +0200,
10,C:\Users\id05278\Desktop\MLLM matteo\Task and screenshots\experiment-20250603T085947Z-1-001\experiment\responses_files\prompt_10.xlsx,C:\Users\id05278\Desktop\MLLM matteo\Task and screenshots\experiment-20250603T085947Z-1-001\experiment\responses_files\img_prompt_10.jpg,What could be a reason the people in the image are playing Wii at work?,10,10.2,"It looks like the people in the image are enjoying a game on the Wii, which could be part of a team-building activity or a break to foster a positive work environment. Companies sometimes use gaming as a way to encourage collaboration, relieve stress, and improve employee relations. It's also possible that this is a special event or celebration, or that the company encourages short gaming breaks to boost creativity and productivity.",4.333333333333333,gpt-4v,0,23,23,9,0,0,0,1,1425.241331600002,,,,,,,,,,,,,,,,1409.2660950999998,1409.2751994999999,1409.7607838000113,1409.7607985000068,1409.7956623000064,1409.7956623000064,1409.7956623000064,1424.7295509000105,space,14.93198009999469,None,1425.231617100013,What could be a reason the people in the image are playing Wii at work?,"It looks like the people in the image are enjoying a game on the Wii, which could be part of a team-building activity or a break to foster a positive work environment. Companies sometimes use gaming as a way to encourage collaboration, relieve stress, and improve employee relations. It's also possible that this is a special event or celebration, or that the company encourages short gaming breaks to boost creativity and productivity.",1425.241331600002,1426.2272265000065,1426.2272407000128,1426.2601519000018,1446.4945501000038,space,20.226420400009374,None,1446.6987863000104,1446.7383871000056,1446.7383871000056,1446.7383871000056,1446.7383871000056,1450.2602077000047,1450.2602077000047,1450.3327602000063,space,0.05838719999883324,None,5,1.9910021999967285,5,2.7279356999933952,5,3.4952912000007927,,,,,,,,,,,,1409.7956623000064,1426.2601519000018,,,,,,,,1,001,2025-09-04_16h52.06.478,TEST_eye_tracker,2024.1.5,None,2025-09-04 16h52.16.611728 +0200,
10,C:\Users\id05278\Desktop\MLLM matteo\Task and screenshots\experiment-20250603T085947Z-1-001\experiment\responses_files\prompt_10.xlsx,C:\Users\id05278\Desktop\MLLM matteo\Task and screenshots\experiment-20250603T085947Z-1-001\experiment\responses_files\img_prompt_10.jpg,What could be a reason the people in the image are playing Wii at work?,10,10.1,"A possible reason the people in the image are playing Wii at work could be that they enjoy spending time together, engaging in fun activities, and fostering a sense of camaraderie. Wii games often involve physical movements, which can help relieve stress, promote teamwork, and enhance communication among players. By playing together, they share a common interest in a fun and interactive way, which can contribute to a positive work environment. Additionally, playing Wii at work might encourage employees to engage in more physical activity, which can lead to improved health and well-being.",5,fuyu-8b,0,23,23,9,0,1,1,0,1450.360205600009,,,,,,,,,,,,,,,,,,,,,,,,,,,1450.3333086000057,What could be a reason the people in the image are playing Wii at work?,"A possible reason the people in the image are playing Wii at work could be that they enjoy spending time together, engaging in fun activities, and fostering a sense of camaraderie. Wii games often involve physical movements, which can help relieve stress, promote teamwork, and enhance communication among players. By playing together, they share a common interest in a fun and interactive way, which can contribute to a positive work environment. Additionally, playing Wii at work might encourage employees to engage in more physical activity, which can lead to improved health and well-being.",1450.360205600009,1451.360503600008,1451.3605176000128,1451.3937721000111,1474.2947376000084,space,22.869024400002672,None,1474.5015079000004,1474.5408901000046,1474.5408901000046,1474.5408901000046,1474.5408901000046,1481.2603569000057,1481.2603569000057,1481.5662587000115,space,0.29872699998668395,None,3,5.522138000000268,4,4.5244531000062125,3,6.692342599999392,,,,,,,,,,,,,,,,,,,,,1,001,2025-09-04_16h52.06.478,TEST_eye_tracker,2024.1.5,None,2025-09-04 16h52.16.611728 +0200,
10,C:\Users\id05278\Desktop\MLLM matteo\Task and screenshots\experiment-20250603T085947Z-1-001\experiment\responses_files\prompt_10.xlsx,C:\Users\id05278\Desktop\MLLM matteo\Task and screenshots\experiment-20250603T085947Z-1-001\experiment\responses_files\img_prompt_10.jpg,What could be a reason the people in the image are playing Wii at work?,,,0.888,,,0,23,23,9,,,,,,,,,,,,,,,,,,,,,,,,,,,,,,,,,What could be a reason the people in the image are playing Wii at work?,0.888,,,,,,,,,,,,,,,,,,,,,,,,,,1481.6979696000053,1481.7150203000056,1481.7150203000056,1482.9603437000042,1482.9603437000042,1483.2296090000018,1,1.195639300000039,space,0.2376360000052955,None,,,,,,,,,,1,001,2025-09-04_16h52.06.478,TEST_eye_tracker,2024.1.5,None,2025-09-04 16h52.16.611728 +0200,
